time,seconds_elapsed,z,y,x
1712257497846436600,0.0454365234375,0,0,0
1712257497856436700,0.055436767578125,0.024753570556640625,0.007747173309326172,-0.011948354542255402
1712257497866437400,0.065437255859375,0.13100814819335938,0.018798828125,-0.002191498875617981
1712257497876438500,0.0754384765625,0.17954254150390625,0.049578189849853516,0.017112910747528076
1712257497886440700,0.085440673828125,0.010217666625976562,0.07378864288330078,0.019162006676197052
1712257497896443600,0.095443603515625,-0.05781364440917969,-0.00009632110595703125,0.07909348607063293
1712257497906447400,0.105447265625,-0.1960287094116211,-0.042401790618896484,0.08944867551326752
1712257497916452400,0.115452392578125,-0.18831253051757812,0.010048389434814453,0.0402473509311676
1712257497926458400,0.125458251953125,-0.058205604553222656,-0.013064861297607422,0.047925420105457306
1712257497936465400,0.13546533203125,0.023336410522460938,-0.06377267837524414,-0.017618298530578613
1712257497946473200,0.14547314453125,-0.04960060119628906,-0.11189794540405273,0.07939192652702332
1712257497956481800,0.155481689453125,-0.190582275390625,-0.09712409973144531,0.1248665377497673
1712257497966491100,0.1654912109375,-0.338531494140625,-0.06421184539794922,0.09544636309146881
1712257497976501000,0.1755009765625,-0.5937023162841797,-0.011393547058105469,-0.0060471296310424805
1712257497986510800,0.1855107421875,-0.7746515274047852,-0.0025892257690429688,-0.03295218199491501
1712257497996521000,0.19552099609375,-0.7940988540649414,-0.006070613861083984,-0.08651973307132721
1712257498006530300,0.2055302734375,-0.5753335952758789,0.0638880729675293,-0.0741194635629654
1712257498016536000,0.2155361328125,-0.3546285629272461,0.06588935852050781,-0.09369482100009918
1712257498026542000,0.2255419921875,-0.2567262649536133,0.03839683532714844,-0.08519673347473145
1712257498036547800,0.2355478515625,-0.1240091323852539,-0.0003108978271484375,-0.004521597176790237
1712257498046553600,0.2455537109375,0.034232139587402344,0.017197132110595703,0.07769295573234558
1712257498056559600,0.2555595703125,0.18667030334472656,0.04081439971923828,-0.011378723196685314
1712257498066565400,0.2655654296875,0.2433462142944336,0.05064058303833008,-0.022297266870737076
1712257498076571100,0.275571044921875,0.19929218292236328,0.06094646453857422,-0.04108045995235443
1712257498086577000,0.285576904296875,0.10900306701660156,0.03477764129638672,-0.01607411727309227
1712257498096583000,0.2955830078125,-0.08165836334228516,0.015500068664550781,0.03764379024505615
1712257498106588700,0.305588623046875,-0.20880699157714844,-0.0006527900695800781,-0.04688287153840065
1712257498116594400,0.315594482421875,-0.3915271759033203,-0.030426502227783203,0.05165080726146698
1712257498126600400,0.325600341796875,-0.4164714813232422,-0.04888439178466797,0.008066048845648766
1712257498136606200,0.335606201171875,-0.3819007873535156,-0.027964115142822266,-0.03988399729132652
1712257498146612000,0.345612060546875,-0.2430868148803711,-0.015586376190185547,-0.05536981672048569
1712257498156617700,0.35561767578125,-0.025316238403320312,-0.012974739074707031,-0.04261777549982071
1712257498166623700,0.365623779296875,0.3028697967529297,0.015718936920166016,-0.0352654792368412
1712257498176629500,0.37562939453125,0.49362754821777344,0.03528404235839844,-0.030606240034103394
1712257498186635300,0.38563525390625,0.3089733123779297,-0.009190559387207031,-0.00908903032541275
1712257498196641300,0.395641357421875,-0.0655527114868164,-0.029613018035888672,0.0729738175868988
1712257498206647000,0.40564697265625,-0.4828653335571289,-0.023351669311523438,0.0512213259935379
1712257498216652800,0.41565283203125,-0.7954959869384766,0.008162975311279297,-0.02073763683438301
1712257498226658600,0.425658447265625,-0.8253021240234375,0.0608830451965332,-0.09540288150310516
1712257498236664600,0.43566455078125,-0.723576545715332,0.044727325439453125,-0.1725802719593048
1712257498246670300,0.44567041015625,-0.6421689987182617,0.016252517700195312,-0.15077677369117737
1712257498256676000,0.455676025390625,-0.5048761367797852,-0.002239227294921875,-0.10835283249616623
1712257498266682000,0.46568212890625,-0.321380615234375,-0.026350975036621094,-0.04088114574551582
1712257498276688000,0.47568798828125,0.053836822509765625,-0.006700992584228516,-0.05242568626999855
1712257498286693600,0.485693603515625,0.5541772842407227,-0.06166839599609375,0.03896018862724304
1712257498296699400,0.495699462890625,0.7011528015136719,-0.07076692581176758,0.14856813848018646
1712257498306705400,0.505705322265625,0.6055479049682617,-0.05395364761352539,0.1833154559135437
1712257498316711200,0.515711181640625,0.4592094421386719,-0.01540517807006836,0.16527678072452545
1712257498326717000,0.525717041015625,0.3234901428222656,0.04065370559692383,0.13354842364788055
1712257498336723000,0.535722900390625,0.19743061065673828,0.19485855102539062,0.1154525876045227
1712257498346728700,0.545728759765625,0.27307605743408203,0.16870784759521484,0.05408287048339844
1712257498356734500,0.555734375,0.07665443420410156,-0.010344982147216797,0.2162952423095703
1712257498366740200,0.565740234375,0.08679962158203125,0.0615239143371582,0.07605687528848648
1712257498376746200,0.575746337890625,0.04983806610107422,0.1510019302368164,-0.15608692169189453
1712257498386752000,0.585751953125,0.07431793212890625,-0.07064294815063477,0.09018339961767197
1712257498396757800,0.5957578125,0.2297525405883789,-0.057272911071777344,0.151924267411232
1712257498406763800,0.605763671875,0.41124439239501953,-0.059078216552734375,0.14554095268249512
1712257498416769500,0.61576953125,0.40723419189453125,-0.03915691375732422,0.28591835498809814
1712257498426775600,0.625775634765625,0.26346778869628906,0.0016846656799316406,0.21014299988746643
1712257498436781300,0.63578125,0.099365234375,-0.020623207092285156,0.09517921507358551
1712257498446787300,0.645787353515625,-0.15592670440673828,0.008893489837646484,0.07198700308799744
1712257498456793000,0.65579296875,-0.3793306350708008,0.006157875061035156,-0.021293725818395615
1712257498466799000,0.665799072265625,-0.5016717910766602,0.03925323486328125,-0.08674053847789764
1712257498476804900,0.675804931640625,-0.6008176803588867,-0.09346580505371094,-0.030050933361053467
1712257498486811000,0.685810791015625,-0.5123729705810547,0.02039480209350586,-0.004544535651803017
1712257498496816600,0.695816650390625,-0.3994626998901367,-0.04724311828613281,0.04210534691810608
1712257498506822700,0.70582275390625,-0.20077133178710938,-0.011742591857910156,-0.007841872982680798
1712257498516828400,0.715828369140625,0.05489349365234375,0.034193992614746094,-0.10516844689846039
1712257498526834400,0.72583447265625,0.30629920959472656,0.013446331024169922,-0.008013155311346054
1712257498536840200,0.735840087890625,0.4460945129394531,0.01035928726196289,-0.04421423003077507
1712257498546846000,0.745845947265625,0.40116214752197266,0.024009227752685547,-0.07956938445568085
1712257498556852000,0.75585205078125,0.2545785903930664,0.04478645324707031,-0.147873193025589
1712257498566857700,0.765857666015625,0.08291053771972656,0.07808637619018555,-0.1499035507440567
1712257498576863700,0.77586376953125,-0.0008802413940429688,0.08213186264038086,-0.11436264216899872
1712257498586869500,0.785869384765625,-0.031218528747558594,0.047994136810302734,-0.0907057374715805
1712257498596875500,0.79587548828125,-0.1080789566040039,0.03788137435913086,-0.05626710131764412
1712257498606881300,0.80588134765625,-0.17449283599853516,-0.004571437835693359,0.01737651228904724
1712257498616887300,0.81588720703125,-0.2403583526611328,-0.026493072509765625,0.03659632056951523
1712257498626893000,0.82589306640625,-0.31531238555908203,-0.0325775146484375,0.03166555240750313
1712257498636899000,0.835899169921875,-0.32893943786621094,-0.07896947860717773,0.06031060963869095
1712257498646904800,0.84590478515625,-0.31992530822753906,-0.047284603118896484,0.0739392340183258
1712257498656910800,0.855910888671875,-0.20373821258544922,-0.028559207916259766,0.012355901300907135
1712257498666916600,0.86591650390625,-0.04756641387939453,0.02361774444580078,-0.03882017359137535
1712257498676922600,0.875922607421875,0.1392822265625,0.07439136505126953,-0.07023528218269348
1712257498686928400,0.885928466796875,0.24872493743896484,0.07074165344238281,-0.054378848522901535
1712257498696934400,0.895934326171875,0.21643733978271484,0.031870365142822266,0.00828048586845398
1712257498706940200,0.905940185546875,0.0774698257446289,0.015310287475585938,0.038378000259399414
1712257498716946200,0.9159462890625,-0.06826019287109375,0.007815361022949219,-0.0048442259430885315
1712257498726952000,0.925951904296875,-0.19775390625,0.019820690155029297,-0.018443644046783447
1712257498736958000,0.9359580078125,-0.260101318359375,0.028530597686767578,0.0387999564409256
1712257498746963700,0.945963623046875,-0.20943164825439453,0.062426090240478516,0.005270473659038544
1712257498756969700,0.9559697265625,-0.09930419921875,0.04086780548095703,-0.02933569997549057
1712257498766975500,0.9659755859375,0.04155540466308594,0.06747055053710938,0.03444357216358185
1712257498776981500,0.9759814453125,0.2086172103881836,0.10251045227050781,-0.028708480298519135
1712257498786987300,0.9859873046875,0.3361034393310547,0.08366680145263672,-0.12382754683494568
1712257498796993300,0.9959931640625,0.40149974822998047,0.10067510604858398,-0.10491405427455902
1712257498806999000,1.0059990234375,0.3776578903198242,0.05395841598510742,-0.09218336641788483
1712257498817005000,1.016005126953125,0.36023807525634766,0.04816627502441406,-0.07588499039411545
1712257498827010800,1.0260107421875,0.32561206817626953,0.0637807846069336,-0.04261818528175354
1712257498837016800,1.036016845703125,0.18888092041015625,0.04003763198852539,0.006324946880340576
1712257498847022600,1.046022705078125,0.07825660705566406,-0.007209300994873047,0.03833121061325073
1712257498857028600,1.056028564453125,-0.08259105682373047,-0.03899955749511719,0.08847679197788239
1712257498867034400,1.066034423828125,-0.17551422119140625,-0.050271034240722656,0.13462942838668823
1712257498877040400,1.076040283203125,-0.18286895751953125,-0.06482124328613281,0.12962910532951355
1712257498887046100,1.086046142578125,-0.17684459686279297,-0.04946756362915039,0.09868958592414856
1712257498897052200,1.09605224609375,-0.1385059356689453,-0.038292884826660156,0.07616734504699707
1712257498907058000,1.106057861328125,-0.1532001495361328,-0.0028929710388183594,0.052285969257354736
1712257498917064000,1.11606396484375,-0.1400165557861328,0.014056205749511719,-0.04503743350505829
1712257498927069700,1.126069580078125,-0.033194541931152344,0.054807186126708984,-0.0937565416097641
1712257498937075700,1.13607568359375,0.20877838134765625,0.0707240104675293,-0.0952327698469162
1712257498947081500,1.14608154296875,0.2690114974975586,0.042047977447509766,-0.10809542238712311
1712257498957087500,1.15608740234375,0.06081390380859375,-0.006482601165771484,-0.08526428043842316
1712257498967093200,1.16609326171875,-0.1580038070678711,0.03988027572631836,-0.04797308146953583
1712257498977099300,1.176099365234375,-0.1994342803955078,0.04851579666137695,-0.08480267226696014
1712257498987105000,1.18610498046875,-0.09468460083007812,0.05311298370361328,-0.11157873272895813
1712257498997110800,1.19611083984375,0.012767791748046875,0.06751346588134766,-0.10991969704627991
1712257499007116800,1.20611669921875,0.01953601837158203,0.04401969909667969,-0.046843022108078
1712257499017122600,1.21612255859375,-0.07745075225830078,0.02572345733642578,-0.050754934549331665
1712257499027128300,1.22612841796875,-0.17792415618896484,0.041319847106933594,-0.03039976954460144
1712257499037134000,1.236134033203125,-0.18303585052490234,0.04795551300048828,-0.027582287788391113
1712257499047140000,1.24614013671875,-0.1271677017211914,0.00793600082397461,-0.0249178409576416
1712257499057145900,1.256145751953125,-0.034682273864746094,0.039394378662109375,-0.0031613707542419434
1712257499067151600,1.266151611328125,-0.00933837890625,0.027412891387939453,-0.024039119482040405
1712257499077157600,1.27615771484375,-0.07353687286376953,0.005674839019775391,-0.026249855756759644
1712257499087163400,1.286163330078125,-0.1177835464477539,0.04070091247558594,-0.013908058404922485
1712257499097169200,1.296169189453125,-0.12389183044433594,0.042613983154296875,-0.006179124116897583
1712257499107175000,1.3061748046875,-0.1539449691772461,0.04528665542602539,-0.007269233465194702
1712257499117181000,1.316180908203125,-0.155914306640625,0.05359172821044922,0.01272609829902649
1712257499127186700,1.326186767578125,-0.10178184509277344,0.057666778564453125,-0.013050764799118042
1712257499137192400,1.3361923828125,0.031352996826171875,0.05723714828491211,-0.015404820442199707
1712257499147198500,1.346198486328125,0.17217636108398438,0.0654449462890625,0.005398064851760864
1712257499157204200,1.356204345703125,0.14198589324951172,0.06739997863769531,-0.0022909939289093018
1712257499167210000,1.3662099609375,0.042214393615722656,0.05893659591674805,0.005318880081176758
1712257499177215700,1.3762158203125,-0.051044464111328125,0.0456395149230957,0.008623838424682617
1712257499187221800,1.3862216796875,-0.1523599624633789,0.02350473403930664,-0.01216745376586914
1712257499197227500,1.3962275390625,-0.10642051696777344,0.016678810119628906,-0.07738359272480011
1712257499207233300,1.4062333984375,0.032906532287597656,0.0431208610534668,-0.08295872807502747
1712257499217239300,1.4162392578125,0.07141685485839844,0.05448198318481445,-0.07626451551914215
1712257499227245000,1.4262451171875,0.02490234375,0.03208589553833008,-0.008543193340301514
1712257499237250800,1.436250732421875,-0.05840301513671875,0.01449728012084961,0.04096722602844238
1712257499247256600,1.446256591796875,-0.14055728912353516,0.03983354568481445,0.04952266812324524
1712257499257262600,1.4562626953125,-0.21739482879638672,0.023513317108154297,0.03146934509277344
1712257499267268400,1.466268310546875,-0.23739242553710938,-0.0004563331604003906,0.03354024887084961
1712257499277274000,1.476274169921875,-0.09761619567871094,-0.004132270812988281,0.06409165263175964
1712257499287280000,1.486280029296875,0.06821632385253906,0.025036334991455078,0.12167873978614807
1712257499297286000,1.496285888671875,0.04821586608886719,0.01043701171875,0.14016443490982056
1712257499307291600,1.506291748046875,-0.09344291687011719,-0.023387432098388672,0.12414821982383728
1712257499317297700,1.516297607421875,-0.15749835968017578,-0.02344655990600586,0.12584173679351807
1712257499327303400,1.526303466796875,-0.10752296447753906,-0.023351192474365234,0.08862453699111938
1712257499337309200,1.53630908203125,-0.0725860595703125,-0.01368093490600586,0.018629759550094604
1712257499347315000,1.54631494140625,-0.06643867492675781,0.00044155120849609375,-0.026283055543899536
1712257499357321000,1.556321044921875,0.047901153564453125,0.0377802848815918,-0.05485573410987854
1712257499367326700,1.56632666015625,0.18446922302246094,0.05460643768310547,-0.10051658749580383
1712257499377332500,1.57633251953125,0.14045047760009766,0.0511775016784668,-0.06806769967079163
1712257499387338500,1.58633837890625,0.050513267517089844,0.061055660247802734,-0.04765617847442627
1712257499397344300,1.59634423828125,-0.07069587707519531,0.03275775909423828,-0.026952266693115234
1712257499407350000,1.60635009765625,-0.1382131576538086,0.028753280639648438,0.020558565855026245
1712257499417355800,1.616355712890625,-0.1297140121459961,0.01628875732421875,0.050660789012908936
1712257499427361800,1.62636181640625,-0.10289955139160156,0.023565292358398438,0.08366605639457703
1712257499437367600,1.636367431640625,-0.09554386138916016,0.012232780456542969,0.03983360528945923
1712257499447373600,1.64637353515625,-0.111968994140625,0.03431081771850586,-0.01386493444442749
1712257499457379300,1.65637939453125,-0.10481643676757812,0.05175304412841797,-0.03920912742614746
1712257499467385300,1.66638525390625,-0.012964248657226562,0.059400081634521484,-0.0785202831029892
1712257499477391000,1.67639111328125,0.030460357666015625,0.06667184829711914,-0.10873271524906158
1712257499487397000,1.686397216796875,-0.020956993103027344,0.059612274169921875,-0.06786663830280304
1712257499497403000,1.69640283203125,-0.10471534729003906,0.029483318328857422,-0.003576338291168213
1712257499507409000,1.706408935546875,-0.2206554412841797,0.010234832763671875,0.013280808925628662
1712257499517414700,1.71641455078125,-0.27455615997314453,-0.0022249221801757812,0.06352150440216064
1712257499527420700,1.726420654296875,-0.2581062316894531,-0.03612089157104492,0.08965817093849182
1712257499537426400,1.736426513671875,-0.29034900665283203,0.02227306365966797,0.0010599195957183838
1712257499547432400,1.746432373046875,-0.12543869018554688,0.02050638198852539,-0.003558725118637085
1712257499557438200,1.756438232421875,0.027441978454589844,-0.00957632064819336,0.013789147138595581
1712257499567444200,1.7664443359375,0.013319015502929688,-0.011429786682128906,-0.007089793682098389
1712257499577450000,1.776449951171875,0.06562614440917969,0.03801870346069336,-0.0026738643646240234
1712257499587456000,1.7864560546875,0.12273788452148438,0.061513423919677734,-0.07353144884109497
1712257499597461800,1.796461669921875,0.10477638244628906,0.0731821060180664,-0.11462633311748505
1712257499607467800,1.8064677734375,0.045525550842285156,0.06912565231323242,-0.12525348365306854
1712257499617473500,1.8164736328125,-0.00295257568359375,0.07386398315429688,-0.12509013712406158
1712257499627479600,1.8264794921875,-0.07908439636230469,0.08349990844726562,-0.11912824213504791
1712257499637485300,1.8364853515625,-0.07443046569824219,0.07494592666625977,-0.07461103796958923
1712257499647491300,1.8464912109375,-0.03734779357910156,0.06724786758422852,-0.03974264860153198
1712257499657497000,1.8564970703125,0.05073738098144531,0.07870054244995117,0.047766536474227905
1712257499667503000,1.866503173828125,0.1283245086669922,0.0751352310180664,0.06410613656044006
1712257499677508900,1.8765087890625,0.1583395004272461,0.07501792907714844,0.05178147554397583
1712257499687515000,1.886514892578125,0.0755300521850586,0.07384347915649414,0.038692206144332886
1712257499697520600,1.896520751953125,-0.07168006896972656,0.030138492584228516,0.02497309446334839
1712257499707526700,1.906526611328125,-0.08951854705810547,0.03929901123046875,0.006934136152267456
1712257499717532400,1.916532470703125,-0.02208423614501953,0.04323768615722656,-0.07679447531700134
1712257499727538400,1.926538330078125,-0.040762901306152344,0.07109832763671875,-0.10818101465702057
1712257499737544200,1.936544189453125,0.053933143615722656,0.05132436752319336,-0.11093464493751526
1712257499747550200,1.94655029296875,0.09552001953125,0.036150455474853516,-0.08535593748092651
1712257499757556000,1.956555908203125,0.08946037292480469,0.030381202697753906,-0.021828413009643555
1712257499767562000,1.96656201171875,0.06953811645507812,0.029067516326904297,-0.009882956743240356
1712257499777567700,1.976567626953125,0.07367801666259766,0.027425289154052734,-0.006900697946548462
1712257499787573500,1.986573486328125,0.0026369094848632812,0.020755290985107422,0.00036853551864624023
1712257499797579500,1.99657958984375,-0.020122528076171875,0.009491443634033203,0.03544926643371582
1712257499807585300,2.006585205078125,0.05653858184814453,0.03110361099243164,0.05592608451843262
1712257499817591300,2.01659130859375,0.0947103500366211,0.04222869873046875,0.009488165378570557
1712257499827597000,2.02659716796875,0.13308238983154297,0.06126070022583008,-0.03697073459625244
1712257499837603000,2.03660302734375,0.072723388671875,0.05990266799926758,-0.0034388303756713867
1712257499847608800,2.04660888671875,0.14111709594726562,0.03404092788696289,-0.0037409961223602295
1712257499857614800,2.05661474609375,0.25232601165771484,0.09548521041870117,-0.03206995129585266
1712257499867620600,2.06662060546875,0.4863262176513672,-0.012757301330566406,-0.018212467432022095
1712257499877626600,2.076626708984375,0.2859363555908203,0.055606842041015625,-0.12144112586975098
1712257499887632400,2.08663232421875,0.057364463806152344,0.1063995361328125,0.008476108312606812
1712257499897638400,2.096638427734375,-0.030771255493164062,0.13264179229736328,-0.1016264408826828
1712257499907644200,2.10664404296875,0.0667104721069336,0.04009199142456055,-0.11225840449333191
1712257499917650200,2.116650146484375,-0.10065650939941406,0.04270219802856445,-0.06266139447689056
1712257499927656000,2.126656005859375,-0.2998790740966797,0.05287361145019531,-0.06284408271312714
1712257499937662000,2.136661865234375,-0.13483715057373047,-0.12746572494506836,0.03936246037483215
1712257499947667700,2.146667724609375,-0.07195472717285156,0.016204833984375,0.1316228210926056
1712257499957673700,2.156673828125,-0.2946138381958008,-0.16416406631469727,0.004120498895645142
1712257499967679500,2.166679443359375,-0.33161258697509766,0.06132984161376953,0.09129557013511658
1712257499977685500,2.176685546875,-0.2281646728515625,0.03097391128540039,0.03231757879257202
1712257499987691300,2.186691162109375,-0.23583507537841797,0.007560253143310547,0.01654300093650818
1712257499997697000,2.196697021484375,-0.2399425506591797,0.0805196762084961,0.08867183327674866
1712257500007702800,2.206702880859375,-0.21673011779785156,0.050127506256103516,0.038867175579071045
1712257500017708800,2.216708740234375,-0.22783374786376953,0.07350921630859375,-0.0048237144947052
1712257500027714600,2.226714599609375,-0.07925033569335938,0.07381534576416016,-0.009083598852157593
1712257500037720300,2.23672021484375,0.0766305923461914,0.054758548736572266,-0.023067772388458252
1712257500047726300,2.246726318359375,0.12260913848876953,0.0438685417175293,0.0013966858386993408
1712257500057732000,2.256732177734375,0.10294532775878906,0.01737833023071289,0.026173830032348633
1712257500067737900,2.26673779296875,0.037344932556152344,-0.009885311126708984,0.016623228788375854
1712257500077743600,2.27674365234375,0.001560211181640625,0.004989147186279297,0.02554464340209961
1712257500087749600,2.28674951171875,-0.02889251708984375,0.047869205474853516,-0.00875517725944519
1712257500097755400,2.29675537109375,-0.04019927978515625,0.04330873489379883,-0.06694574654102325
1712257500107761200,2.30676123046875,-0.037395477294921875,0.034481048583984375,-0.0591043084859848
1712257500117767200,2.31676708984375,0.036167144775390625,0.03497600555419922,-0.00011068582534790039
1712257500127773000,2.32677294921875,0.0996551513671875,0.05343484878540039,0.05775570869445801
1712257500137778700,2.33677880859375,0.0827322006225586,0.018747329711914062,0.13317033648490906
1712257500147784400,2.346784423828125,-0.04185009002685547,0.021780014038085938,0.1364341378211975
1712257500157790500,2.35679052734375,-0.07977104187011719,0.0014705657958984375,0.1353326439857483
1712257500167796200,2.366796142578125,-0.21184730529785156,-0.012851715087890625,0.10619300603866577
1712257500177802000,2.376802001953125,-0.31478404998779297,0.008005619049072266,0.02169334888458252
1712257500187808000,2.38680810546875,-0.29047107696533203,0.03564453125,-0.07980173826217651
1712257500197813800,2.396813720703125,-0.24933719635009766,0.05592679977416992,-0.1714782416820526
1712257500207819500,2.406819580078125,-0.24369430541992188,0.07873725891113281,-0.1213691383600235
1712257500217825300,2.4168251953125,-0.1550884246826172,0.07079744338989258,-0.0719221830368042
1712257500227831300,2.426831298828125,-0.08308029174804688,0.05983734130859375,-0.09906768798828125
1712257500237837000,2.436837158203125,-0.0031757354736328125,0.06370687484741211,-0.05533377826213837
1712257500247842800,2.4468427734375,0.1697549819946289,0.057842254638671875,-0.04546113312244415
1712257500257848800,2.456848876953125,0.4022951126098633,0.050096988677978516,-0.006951361894607544
1712257500267854600,2.4668544921875,0.4259042739868164,-0.007891654968261719,0.045532822608947754
1712257500277860400,2.4768603515625,0.3712730407714844,0.0022416114807128906,0.05640900135040283
1712257500287866000,2.4868662109375,0.40947628021240234,0.017620563507080078,0.04298430681228638
1712257500297872100,2.4968720703125,0.8177776336669922,0.03188800811767578,-0.02200290560722351
1712257500307878000,2.5068779296875,1.5832080841064453,0.0835418701171875,-0.1630687117576599
1712257500317883600,2.516883544921875,2.1752195358276367,0.10191535949707031,-0.10141696780920029
1712257500327889700,2.5268896484375,2.598346710205078,0.0946664810180664,-0.008371412754058838
1712257500337895400,2.5368955078125,2.9754858016967773,0.1077880859375,0.05234764516353607
1712257500347901200,2.546901123046875,3.432771682739258,0.06687021255493164,0.008184835314750671
1712257500357907000,2.556906982421875,3.881405830383301,0.07542800903320312,0.017826668918132782
1712257500367913000,2.566912841796875,4.552947998046875,-0.030575275421142578,-0.14990900456905365
1712257500377918700,2.576918701171875,5.306735992431641,-0.0666966438293457,-0.363054484128952
1712257500387924500,2.586924560546875,6.038649559020996,-0.3906259536743164,-0.022664062678813934
1712257500397930500,2.596930419921875,6.044910907745361,-0.6377849578857422,-0.3781890273094177
1712257500407936300,2.606936279296875,5.299725532531738,-1.0503759384155273,-0.052254192531108856
1712257500417942300,2.6169423828125,3.971189498901367,-1.7772502899169922,-0.09025529026985168
1712257500427948000,2.626947998046875,2.0232439041137695,-1.8148603439331055,0.22291278839111328
1712257500437954000,2.6369541015625,0.33522653579711914,-1.8926658630371094,0.27734100818634033
1712257500447959800,2.646959716796875,-0.9467282295227051,-1.772047996520996,0.10276190936565399
1712257500457965800,2.6569658203125,-2.4582111835479736,-1.609947681427002,0.14629735052585602
1712257500467971600,2.6669716796875,-3.9043679237365723,-1.5724163055419922,0.24014456570148468
1712257500477977600,2.6769775390625,-5.000068664550781,-1.4169583320617676,0.1592208743095398
1712257500487983400,2.6869833984375,-5.5809173583984375,-1.3637886047363281,0.09352815896272659
1712257500497989400,2.6969892578125,-5.340603828430176,-1.2437248229980469,0.06368805468082428
1712257500507995100,2.7069951171875,-4.010512351989746,-0.9200015068054199,-0.12467377632856369
1712257500518001200,2.717001220703125,-2.115807294845581,-0.7800154685974121,-0.18763771653175354
1712257500528007000,2.7270068359375,-0.528261661529541,-0.7453432083129883,-0.3376360237598419
1712257500538012700,2.7370126953125,1.0326886177062988,-0.6506223678588867,-0.3957761228084564
1712257500548018700,2.747018798828125,2.0009779930114746,-0.816162109375,-0.22304098308086395
1712257500558024400,2.7570244140625,2.2109718322753906,-1.2608914375305176,0.06867173314094543
1712257500568030500,2.767030517578125,1.3864665031433105,-1.2704806327819824,0.4107717275619507
1712257500578036200,2.7770361328125,0.3065454959869385,-0.9230928421020508,-0.08993631601333618
1712257500588042200,2.787042236328125,-0.32546544075012207,-0.9121866226196289,0.07813192158937454
1712257500598048000,2.797048095703125,-1.004748821258545,-1.0237207412719727,0.16197717189788818
1712257500608054000,2.807053955078125,-2.185926914215088,-0.8385696411132812,-0.09457337856292725
1712257500618059800,2.817059814453125,-2.5729990005493164,-0.6137075424194336,-0.09471819549798965
1712257500628065800,2.827065673828125,-2.3022067546844482,-0.49866771697998047,0.0354597307741642
1712257500638071600,2.837071533203125,-1.2036041021347046,-0.26204776763916016,0.09872832894325256
1712257500648077600,2.84707763671875,-0.4689648151397705,-0.02204418182373047,-0.23184765875339508
1712257500658083300,2.857083251953125,-0.3114449977874756,-0.20021820068359375,-0.16407114267349243
1712257500668089300,2.86708935546875,-0.31069517135620117,-0.30932044982910156,0.1908913254737854
1712257500678095000,2.87709521484375,-0.08790087699890137,-0.4119081497192383,0.3471636176109314
1712257500688101000,2.88710107421875,0.05120253562927246,-0.3648643493652344,0.2857739329338074
1712257500698107000,2.89710693359375,0.023198843002319336,-0.3446378707885742,0.22124461829662323
1712257500708113000,2.90711279296875,-0.1367725133895874,-0.3361368179321289,0.13761910796165466
1712257500718118700,2.91711865234375,-0.5710186958312988,-0.25281333923339844,0.02853819727897644
1712257500728124700,2.927124755859375,-0.785116970539093,-0.18066978454589844,-0.1402418315410614
1712257500738130400,2.93713037109375,-0.8162305355072021,-0.15849590301513672,-0.02396518737077713
1712257500748136400,2.947136474609375,-0.6091456413269043,-0.2346172332763672,0.01581987738609314
1712257500758142200,2.95714208984375,-0.5135952234268188,-0.2996644973754883,0.08989774435758591
1712257500768148200,2.967148193359375,-0.6290286779403687,-0.35854339599609375,0.20347614586353302
1712257500778154000,2.977154052734375,-0.7137439250946045,-0.38718318939208984,0.01679138094186783
1712257500788160000,2.987159912109375,-1.076564908027649,-0.3997611999511719,-0.027572855353355408
1712257500798165800,2.997165771484375,-0.8408341407775879,-0.30086612701416016,-0.14933457970619202
1712257500808171800,3.007171875,-0.36137592792510986,-0.31101417541503906,-0.1293831169605255
1712257500818177500,3.017177490234375,-0.8612363338470459,-0.33447933197021484,0.047598451375961304
1712257500828183600,3.02718359375,-1.1338298320770264,-0.38540077209472656,0.31625038385391235
1712257500838189300,3.037189208984375,-1.0280368328094482,-0.3683910369873047,0.43907248973846436
1712257500848195300,3.0471953125,-1.1659536361694336,-0.3029184341430664,0.4116438627243042
1712257500858201000,3.057201171875,-1.1710834503173828,-0.1892242431640625,0.24833853542804718
1712257500868207000,3.06720703125,-1.2289940118789673,-0.2185354232788086,0.23042170703411102
1712257500878212900,3.077212890625,-1.297438144683838,-0.17089557647705078,0.14252148568630219
1712257500888219000,3.087218994140625,-0.9485254883766174,-0.008555412292480469,-0.1204095333814621
1712257500898224600,3.097224609375,-0.3193868398666382,0.0053157806396484375,-0.21969088912010193
1712257500908230700,3.107230712890625,-0.07324051856994629,-0.10514259338378906,-0.3230832815170288
1712257500918236400,3.117236328125,0.002299278974533081,-0.19156932830810547,-0.3408081829547882
1712257500928242400,3.127242431640625,-0.3959977924823761,-0.2968578338623047,-0.22547796368598938
1712257500938248200,3.137248291015625,-1.082220196723938,-0.3443737030029297,-0.10620176792144775
1712257500948254200,3.147254150390625,-1.3527741432189941,-0.2769460678100586,-0.2217833697795868
1712257500958260000,3.157260009765625,-1.2604819536209106,-0.2525053024291992,-0.3815383315086365
1712257500968265700,3.167265625,-1.2023229598999023,-0.2661590576171875,-0.37155091762542725
1712257500978271700,3.177271728515625,-1.070246934890747,-0.24138545989990234,-0.2450745850801468
1712257500988277500,3.187277587890625,-0.6862943172454834,-0.20699596405029297,-0.14959926903247833
1712257500998283300,3.197283203125,-0.5689308643341064,-0.1869497299194336,-0.0745837390422821
1712257501008289300,3.207289306640625,-0.3285970091819763,-0.1526336669921875,0.09184645116329193
1712257501018295000,3.217294921875,0.09113328158855438,-0.23309803009033203,0.08329048752784729
1712257501028300800,3.22730078125,0.28117841482162476,-0.2657470703125,0.06265269219875336
1712257501038306600,3.237306640625,0.04501086473464966,-0.28409576416015625,0.005182906985282898
1712257501048312600,3.2473125,-0.3351978361606598,-0.21642780303955078,-0.142786905169487
1712257501058318300,3.257318359375,-0.4379441738128662,-0.11540031433105469,-0.2871054708957672
1712257501068324000,3.267323974609375,-0.315468966960907,-0.09569168090820312,-0.3187871277332306
1712257501078330000,3.277330078125,-0.5310046672821045,-0.13320159912109375,-0.266208678483963
1712257501088336000,3.2873359375,-0.607291579246521,-0.127471923828125,-0.172019362449646
1712257501098341600,3.297341552734375,-0.3659266531467438,-0.18848705291748047,-0.1454179733991623
1712257501108347400,3.307347412109375,-0.26901108026504517,-0.3113126754760742,-0.05267348140478134
1712257501118353400,3.317353515625,-0.6391745805740356,-0.38585662841796875,0.16835136711597443
1712257501128359200,3.327359130859375,-0.9940502047538757,-0.27836036682128906,0.1928323358297348
1712257501138365000,3.337364990234375,-0.9346452951431274,-0.04647064208984375,0.039411574602127075
1712257501148371000,3.347370849609375,-0.46767401695251465,0.16142654418945312,-0.16311465203762054
1712257501158376700,3.357376708984375,-0.08419319987297058,0.19243144989013672,-0.30507057905197144
1712257501168382500,3.367382568359375,-0.03420090675354004,0.11378288269042969,-0.23859526216983795
1712257501178388200,3.37738818359375,0.15622419118881226,-0.012217521667480469,-0.019594326615333557
1712257501188394200,3.387394287109375,0.40315037965774536,-0.14269256591796875,0.08572894334793091
1712257501198400000,3.39739990234375,0.34041279554367065,-0.22054672241210938,0.1120079755783081
1712257501208405800,3.40740576171875,-0.11297285556793213,-0.26601505279541016,0.11997625231742859
1712257501218411800,3.417411865234375,-0.6679994463920593,-0.24937915802001953,0.08717280626296997
1712257501228417500,3.42741748046875,-1.12104332447052,-0.20891666412353516,0.06492036581039429
1712257501238423300,3.43742333984375,-1.4680973291397095,-0.14467620849609375,0.05722016096115112
1712257501248429000,3.447428955078125,-1.5071953535079956,-0.028428077697753906,0.05457806587219238
1712257501258435000,3.45743505859375,-1.0300167798995972,0.026001930236816406,-0.04197457432746887
1712257501268440800,3.46744091796875,-0.5964183807373047,-0.018144607543945312,-0.12809501588344574
1712257501278446600,3.477446533203125,-0.2345835566520691,-0.0982351303100586,-0.07629203796386719
1712257501288452600,3.48745263671875,-0.19949215650558472,-0.17621326446533203,-0.07630032300949097
1712257501298458400,3.497458251953125,-0.5336000323295593,-0.24728775024414062,-0.14596085250377655
1712257501308464000,3.507464111328125,-1.1250358819961548,-0.32532787322998047,-0.25227266550064087
1712257501318470000,3.517469970703125,-2.0224952697753906,-0.3810281753540039,-0.26035812497138977
1712257501328476000,3.527475830078125,-2.615647315979004,-0.40426063537597656,-0.2215891182422638
1712257501338481700,3.537481689453125,-2.406909942626953,-0.34325504302978516,-0.12111641466617584
1712257501348487400,3.5474873046875,-1.868911623954773,-0.39685630798339844,-0.2521781325340271
1712257501358493400,3.557493408203125,-1.3569692373275757,-0.3887014389038086,-0.35776323080062866
1712257501368499200,3.567499267578125,-1.080207109451294,-0.39952945709228516,-0.359361857175827
1712257501378505000,3.5775048828125,-1.1182109117507935,-0.47100257873535156,-0.2921888828277588
1712257501388511000,3.587510986328125,-1.5075483322143555,-0.6333818435668945,-0.30799514055252075
1712257501398516700,3.597516845703125,-2.211533308029175,-0.8346548080444336,-0.13649585843086243
1712257501408522800,3.607522705078125,-3.03930926322937,-1.1052446365356445,0.03393310308456421
1712257501418528500,3.617528564453125,-3.3541905879974365,-1.327700138092041,0.05534687638282776
1712257501428534500,3.627534423828125,-3.002434253692627,-1.4628825187683105,-0.06825926899909973
1712257501438540300,3.637540283203125,-2.3088221549987793,-1.525538444519043,-0.2588430941104889
1712257501448546300,3.64754638671875,-0.7700779438018799,-1.7006902694702148,-0.38950464129447937
1712257501458552000,3.657552001953125,0.4029273986816406,-1.4967374801635742,-0.5654937624931335
1712257501468558000,3.66755810546875,1.4071812629699707,-1.3214588165283203,-0.4426119029521942
1712257501478563800,3.677563720703125,1.4118342399597168,-1.5991320610046387,-0.3178066909313202
1712257501488569600,3.687569580078125,0.537106990814209,-1.4668755531311035,-0.1548134833574295
1712257501498575600,3.69757568359375,-0.5199441909790039,-1.3261380195617676,0.7282896041870117
1712257501508581400,3.707581298828125,-0.5082993507385254,-1.4037680625915527,0.6959694623947144
1712257501518587400,3.71758740234375,0.31583547592163086,-0.9855294227600098,0.7602996230125427
1712257501528593200,3.72759326171875,0.7964935302734375,-1.3474798202514648,0.43858081102371216
1712257501538599200,3.73759912109375,0.6233153343200684,-1.4509682655334473,0.347210168838501
1712257501548605000,3.74760498046875,-0.0010476112365722656,-1.035787582397461,0.2697693705558777
1712257501558611000,3.75761083984375,-0.2624320983886719,-0.8790383338928223,0.41723912954330444
1712257501568616700,3.76761669921875,-0.37387943267822266,-0.9022130966186523,0.3406757712364197
1712257501578622700,3.777622802734375,-0.5290775299072266,-0.9261751174926758,0.08633549511432648
1712257501588628500,3.78762841796875,-0.6528382301330566,-0.9968075752258301,0.18694382905960083
1712257501598634500,3.797634521484375,-0.7118053436279297,-1.2127375602722168,0.4185129702091217
1712257501608640300,3.80764013671875,-0.5469198226928711,-1.324702262878418,0.4663096070289612
1712257501618646300,3.817646240234375,-0.18799686431884766,-1.4018964767456055,0.611883282661438
1712257501628652000,3.827652099609375,0.08112335205078125,-1.522871971130371,0.4244346022605896
1712257501638658000,3.837657958984375,0.44927453994750977,-1.4131908416748047,0.3022726774215698
1712257501648663800,3.847663818359375,1.1042399406433105,-1.2641663551330566,0.36137598752975464
1712257501658669800,3.857669921875,1.7242059707641602,-0.956214427947998,0.2650977373123169
1712257501668675600,3.867675537109375,2.0531883239746094,-0.6402287483215332,-0.0474623441696167
1712257501678681600,3.877681640625,2.842696189880371,-0.490511417388916,-0.5133142471313477
1712257501688687400,3.887687255859375,4.127002716064453,-0.2998075485229492,-0.8828554153442383
1712257501698693400,3.897693359375,4.9703521728515625,-0.015677928924560547,-1.1691018342971802
1712257501708699100,3.90769921875,5.241559982299805,0.0035562515258789062,-1.3740179538726807
1712257501718705200,3.917705078125,5.193503379821777,0.039012908935546875,-1.2008495330810547
1712257501728711000,3.9277109375,4.6082611083984375,0.1735377311706543,-0.8856520652770996
1712257501738717000,3.937717041015625,3.619124412536621,0.2427525520324707,-0.5928663015365601
1712257501748722700,3.94772265625,2.889439582824707,0.24144315719604492,-0.48412811756134033
1712257501758728700,3.957728759765625,2.348626136779785,0.3039522171020508,-0.3888852596282959
1712257501768734500,3.967734375,1.8951778411865234,0.4144887924194336,-0.5538033246994019
1712257501778740500,3.977740478515625,1.6384391784667969,0.40363311767578125,-0.589897632598877
1712257501788746200,3.987746337890625,1.5455150604248047,0.3673210144042969,-0.4280785322189331
1712257501798752300,3.997752197265625,1.3546438217163086,0.2518501281738281,-0.2204573154449463
1712257501808758000,4.007758056640625,1.0132789611816406,0.12979364395141602,-0.22363579273223877
1712257501818764000,4.017763916015625,0.6442222595214844,0.1281299591064453,-0.24443554878234863
1712257501828769800,4.027769775390625,0.5767726898193359,0.15611696243286133,-0.23188477754592896
1712257501838775800,4.03777587890625,0.5816450119018555,0.17836618423461914,-0.2065267562866211
1712257501848781600,4.047781494140625,0.6213645935058594,0.07345056533813477,-0.06359940767288208
1712257501858787600,4.05778759765625,0.48102760314941406,0.04215383529663086,0.07770121097564697
1712257501868793300,4.06779345703125,0.38068485260009766,-0.039081573486328125,0.20113980770111084
1712257501878799400,4.07779931640625,0.4260826110839844,-0.10928130149841309,0.23309987783432007
1712257501888805000,4.08780517578125,0.4119539260864258,-0.12180352210998535,0.08371031284332275
1712257501898811100,4.09781103515625,0.29517459869384766,-0.1384894847869873,0.006107985973358154
1712257501908817000,4.10781689453125,0.2570381164550781,-0.14884734153747559,-0.10976773500442505
1712257501918823000,4.117822998046875,0.3837404251098633,-0.11074566841125488,-0.07186144590377808
1712257501928828700,4.12782861328125,0.2927732467651367,-0.08662891387939453,-0.024775207042694092
1712257501938834700,4.137834716796875,0.0406951904296875,-0.1123199462890625,-0.09110194444656372
1712257501948840400,4.14784033203125,-0.18750286102294922,-0.11753416061401367,-0.09159433841705322
1712257501958846500,4.157846435546875,-0.29702281951904297,-0.0725255012512207,-0.09064191579818726
1712257501968852200,4.167852294921875,-0.3409242630004883,-0.08679628372192383,-0.05969053506851196
1712257501978858000,4.17785791015625,-0.28587818145751953,-0.14606237411499023,-0.023454368114471436
1712257501988864000,4.187864013671875,-0.25632572174072266,-0.1593952178955078,-0.0823814868927002
1712257501998869800,4.197869873046875,-0.08928394317626953,-0.04169797897338867,-0.0858023464679718
1712257502008875800,4.207875732421875,0.08252811431884766,-0.015637874603271484,-0.10797688364982605
1712257502018881500,4.217881591796875,0.1308269500732422,-0.09176301956176758,-0.07456621527671814
1712257502028887600,4.227887451171875,0.0653066635131836,-0.13567209243774414,0.010632365942001343
1712257502038893300,4.237893310546875,0.02414226531982422,-0.1080927848815918,0.03143450617790222
1712257502048899000,4.247899169921875,0.0070209503173828125,-0.06614112854003906,0.02484130859375
1712257502058904800,4.25790478515625,0.0039539337158203125,-0.02830648422241211,-0.05844232439994812
1712257502068910800,4.267910888671875,0.05297565460205078,0.03902912139892578,-0.09582048654556274
1712257502078916600,4.27791650390625,0.1493072509765625,0.04476118087768555,-0.12623614072799683
1712257502088922400,4.28792236328125,0.18776416778564453,0.027247905731201172,-0.12146651744842529
1712257502098928400,4.297928466796875,0.37914180755615234,0.028687477111816406,-0.11745335161685944
1712257502108934100,4.30793408203125,0.49462127685546875,0.02823638916015625,-0.04142118990421295
1712257502118940000,4.31793994140625,0.43413257598876953,0.030584335327148438,0.04440317302942276
1712257502128945700,4.327945556640625,0.24581527709960938,0.00238800048828125,-0.02376978099346161
1712257502138951700,4.33795166015625,-0.013428688049316406,-0.04034566879272461,-0.010226920247077942
1712257502148957400,4.34795751953125,-0.11959266662597656,-0.053174495697021484,0.020543403923511505
1712257502158963200,4.357963134765625,-0.1495504379272461,-0.02652454376220703,0.02724018134176731
1712257502168969200,4.36796923828125,-0.11285877227783203,0.005595684051513672,-0.0013725757598876953
1712257502178975000,4.37797509765625,-0.11956405639648438,-0.018926143646240234,-0.014581832103431225
1712257502188980700,4.387980712890625,-0.14099693298339844,-0.028112411499023438,0.0825328603386879
1712257502198986500,4.397986572265625,-0.16748046875,-0.04129648208618164,0.1267673224210739
1712257502208992500,4.407992431640625,-0.08423519134521484,-0.05397510528564453,0.05246681347489357
1712257502218998300,4.417998291015625,0.03721141815185547,-0.01923227310180664,0.062044449150562286
1712257502229004000,4.428004150390625,0.0920724868774414,0.0046482086181640625,0.013261184096336365
1712257502239010000,4.438010009765625,0.10432815551757812,-0.03474998474121094,-0.04010971263051033
1712257502249015800,4.448015869140625,0.11216163635253906,-0.07489156723022461,-0.06565782427787781
1712257502259021600,4.458021484375,0.014896392822265625,-0.06716489791870117,-0.10518699884414673
1712257502269027300,4.46802734375,-0.08646106719970703,-0.023981094360351562,-0.1303291767835617
1712257502279033300,4.478033447265625,-0.007868766784667969,-0.013087272644042969,-0.07602307945489883
1712257502289039000,4.4880390625,0.07902812957763672,-0.016870975494384766,-0.042752835899591446
1712257502299044900,4.498044921875,0.013916969299316406,-0.030194759368896484,0.021164201200008392
1712257502309051000,4.50805078125,-0.13972759246826172,-0.03351020812988281,0.040158629417419434
1712257502319056600,4.518056640625,-0.20167827606201172,-0.0030727386474609375,0.04784876108169556
1712257502329062400,4.5280625,-0.14028358459472656,0.01771688461303711,0.035934001207351685
1712257502339068200,4.538068115234375,-0.0608978271484375,-0.014003753662109375,0.006541579961776733
1712257502349074200,4.54807421875,-0.07222843170166016,-0.0312504768371582,0.007833167910575867
1712257502359080000,4.558079833984375,-0.0929412841796875,-0.0290985107421875,0.005918815732002258
1712257502369085700,4.568085693359375,-0.037998199462890625,-0.012857437133789062,-0.0317402109503746
1712257502379091700,4.578091796875,-0.026200294494628906,0.021575927734375,-0.0431080237030983
1712257502389097500,4.588097412109375,-0.12299537658691406,-0.005590915679931641,-0.044315405189991
1712257502399103200,4.598103271484375,-0.1905984878540039,-0.021501541137695312,-0.04614577442407608
1712257502409109000,4.60810888671875,-0.17327117919921875,-0.01166677474975586,-0.029432058334350586
1712257502419115000,4.618114990234375,-0.1333332061767578,-0.005415916442871094,0.0014980435371398926
1712257502429120800,4.628120849609375,-0.08031177520751953,-0.02678680419921875,-0.01919156312942505
1712257502439126800,4.638126708984375,-0.019112586975097656,-0.028223037719726562,-0.05421244353055954
1712257502449132500,4.648132568359375,0.05045318603515625,-0.005996227264404297,-0.03297415375709534
1712257502459138600,4.658138671875,0.14760875701904297,-0.008695602416992188,-0.002396896481513977
1712257502469144300,4.668144287109375,0.19687843322753906,-0.008397579193115234,0.0018109530210494995
1712257502479150300,4.678150390625,0.17052745819091797,-0.023430347442626953,0.00866633653640747
1712257502489156000,4.688156005859375,0.07401561737060547,-0.024182796478271484,0.02583792805671692
1712257502499162000,4.698162109375,0.04478168487548828,-0.005540370941162109,-0.000623553991317749
1712257502509167900,4.70816796875,0.12425994873046875,0.02238750457763672,-0.060389481484889984
1712257502519174000,4.718173828125,0.1742992401123047,0.054288387298583984,-0.11472456157207489
1712257502529179600,4.7281796875,0.16252517700195312,0.03812265396118164,-0.09331917762756348
1712257502539185700,4.738185546875,0.09455394744873047,0.045590877532958984,-0.045215778052806854
1712257502549191400,4.74819140625,-0.005443572998046875,0.043982505798339844,-0.008991152048110962
1712257502559197400,4.758197509765625,-0.061771392822265625,0.03852272033691406,0.053036004304885864
1712257502569203200,4.768203125,-0.04669380187988281,-0.008866310119628906,0.09930035471916199
1712257502579209200,4.778209228515625,-0.0035343170166015625,-0.013278007507324219,0.07023885846138
1712257502589215000,4.788215087890625,0.09577083587646484,-0.009032726287841797,0.07240286469459534
1712257502599221000,4.798220947265625,0.16114521026611328,0.017201900482177734,0.06280122697353363
1712257502609226800,4.808226806640625,0.15534114837646484,-0.0004925727844238281,0.016197070479393005
1712257502619232800,4.818232666015625,0.07433605194091797,-0.0037622451782226562,0.010810673236846924
1712257502629238500,4.828238525390625,0.05068683624267578,-0.00115203857421875,-0.02065625786781311
1712257502639244500,4.83824462890625,0.17314910888671875,0.030225276947021484,-0.04342581331729889
1712257502649250300,4.848250244140625,0.18074321746826172,0.03246641159057617,-0.04217985272407532
1712257502659256300,4.85825634765625,0.06591987609863281,0.006147861480712891,-0.06906748563051224
1712257502669262000,4.868261962890625,-0.01877880096435547,-0.014920711517333984,-0.03932511806488037
1712257502679268000,4.87826806640625,-0.03147315979003906,-0.0402531623840332,0.05076448619365692
1712257502689273900,4.88827392578125,-0.09573841094970703,-0.03221321105957031,0.09212712943553925
1712257502699280000,4.89827978515625,-0.18280601501464844,-0.03308439254760742,0.11465819180011749
1712257502709285600,4.90828564453125,-0.2976083755493164,-0.06507444381713867,0.18980632722377777
1712257502719291600,4.918291748046875,-0.31769466400146484,-0.04200458526611328,0.1794973909854889
1712257502729297400,4.92829736328125,-0.23995399475097656,-0.05894899368286133,-0.008462533354759216
1712257502739303400,4.938303466796875,-0.1365642547607422,-0.025940418243408203,-0.06496089696884155
1712257502749309200,4.94830908203125,0.020757675170898438,0.017597198486328125,-0.09079401195049286
1712257502759315200,4.958315185546875,0.17546367645263672,0.013249397277832031,-0.14264842867851257
1712257502769321000,4.968321044921875,0.29529571533203125,0.012242794036865234,-0.21006277203559875
1712257502779327000,4.978326904296875,0.3957996368408203,0.059935569763183594,-0.13346542418003082
1712257502789332700,4.988332763671875,0.35532665252685547,0.10277080535888672,-0.07969094812870026
1712257502799338800,4.9983388671875,0.1707324981689453,0.1142420768737793,-0.12032608687877655
1712257502809344500,5.008344482421875,0.041359901428222656,0.10133743286132812,-0.09085200726985931
1712257502819350500,5.0183505859375,-0.033992767333984375,0.09335517883300781,-0.06040111929178238
1712257502829356300,5.028356201171875,-0.023423194885253906,0.062335968017578125,-0.0589984729886055
1712257502839362000,5.038362060546875,-0.02723979949951172,0.03691673278808594,-0.0017740875482559204
1712257502849368000,5.0483681640625,-0.0026226043701171875,-0.007004737854003906,0.013218909502029419
1712257502859373800,5.058373779296875,-0.006312370300292969,-0.07438468933105469,0.01720277965068817
1712257502869379800,5.0683798828125,0.023145675659179688,-0.08441734313964844,0.017428770661354065
1712257502879385600,5.078385498046875,0.0049648284912109375,-0.05181598663330078,0.00943535566329956
1712257502889391600,5.0883916015625,0.05752372741699219,-0.014680862426757812,-0.011764571070671082
1712257502899397400,5.0983974609375,0.11855792999267578,0.0031828880310058594,-0.005101501941680908
1712257502909403400,5.1084033203125,0.1364431381225586,0.015575408935546875,-0.02721928060054779
1712257502919409200,5.1184091796875,0.08353424072265625,0.03689718246459961,0.03153754770755768
1712257502929415200,5.128415283203125,0.05050849914550781,0.03865242004394531,0.07615819573402405
1712257502939421000,5.1384208984375,0.046301841735839844,0.026150226593017578,0.06971831619739532
1712257502949427000,5.148427001953125,0.018622398376464844,0.02317333221435547,0.06528064608573914
1712257502959432700,5.1584326171875,-0.03693580627441406,0.020339012145996094,0.020112723112106323
1712257502969438700,5.168438720703125,-0.09657955169677734,0.018114566802978516,-0.032838642597198486
1712257502979444500,5.178444580078125,-0.12752723693847656,0.035884857177734375,-0.05208277702331543
1712257502989450500,5.188450439453125,-0.08298873901367188,0.016435623168945312,-0.04275326430797577
1712257502999456300,5.198456298828125,-0.03922748565673828,0.016237258911132812,-0.07632623612880707
1712257503009462300,5.208462158203125,-0.04316902160644531,0.03469991683959961,-0.07725571095943451
1712257503019468000,5.218468017578125,-0.013978958129882812,0.043253421783447266,-0.06450581550598145
1712257503029474000,5.22847412109375,-0.08890151977539062,0.05646800994873047,-0.05229128897190094
1712257503039479800,5.238479736328125,-0.1535205841064453,0.03724956512451172,-0.04521803557872772
1712257503049485800,5.24848583984375,-0.14236068725585938,0.014939308166503906,0.022811800241470337
1712257503059491600,5.25849169921875,0.05677032470703125,-0.006640434265136719,0.08065861463546753
1712257503069497600,5.26849755859375,0.1965169906616211,0.013677597045898438,0.042674630880355835
1712257503079503400,5.27850341796875,0.1882457733154297,0.028591156005859375,-0.02136009931564331
1712257503089509400,5.28850927734375,0.123504638671875,0.04844379425048828,-0.10228924453258514
1712257503099515100,5.29851513671875,0.017091751098632812,0.08303642272949219,-0.1418953835964203
1712257503109521000,5.30852099609375,-0.10221385955810547,0.0663905143737793,-0.1761302649974823
1712257503119526700,5.318526611328125,-0.18722915649414062,0.013571739196777344,-0.09474971890449524
1712257503129532700,5.32853271484375,-0.09231758117675781,-0.03301858901977539,0.04958471655845642
1712257503139538400,5.338538330078125,-0.04119873046875,-0.05116415023803711,0.1525983214378357
1712257503149544200,5.348544189453125,-0.014064788818359375,-0.04651594161987305,0.13913199305534363
1712257503159550200,5.35855029296875,-0.0058536529541015625,-0.023952960968017578,0.1319376826286316
1712257503169556000,5.368555908203125,0.0306396484375,0.0025663375854492188,0.10648983716964722
1712257503179561700,5.378561767578125,0.07637500762939453,0.03250551223754883,0.09041684865951538
1712257503189567500,5.3885673828125,0.013467788696289062,0.051795005798339844,0.0025038421154022217
1712257503199573500,5.398573486328125,-0.05789947509765625,0.0475163459777832,-0.03819531202316284
1712257503209579300,5.408579345703125,-0.052806854248046875,0.05292654037475586,-0.060118019580841064
1712257503219585000,5.4185849609375,-0.06194019317626953,0.06776762008666992,-0.09667721390724182
1712257503229591000,5.428591064453125,-0.03801155090332031,0.02605152130126953,-0.07243114709854126
1712257503239596800,5.4385966796875,0.04197883605957031,0.022885799407958984,-0.09207701683044434
1712257503249602600,5.4486025390625,0.14904212951660156,0.03852367401123047,-0.11869460344314575
1712257503259608300,5.4586083984375,0.24084949493408203,0.03396129608154297,-0.12848952412605286
1712257503269614300,5.4686142578125,0.24251461029052734,0.06547927856445312,-0.07746973633766174
1712257503279620000,5.4786201171875,0.18368911743164062,0.024252891540527344,-0.03109070658683777
1712257503289625900,5.4886259765625,0.08875656127929688,0.0011334419250488281,0.04544633626937866
1712257503299631900,5.4986318359375,-0.023179054260253906,-0.0035414695739746094,0.07657960057258606
1712257503309637600,5.5086376953125,-0.13349151611328125,0.0017299652099609375,0.027748942375183105
1712257503319643400,5.518643310546875,-0.15325927734375,0.013291358947753906,0.021000832319259644
1712257503329649200,5.528649169921875,-0.07457542419433594,0.031035423278808594,0.013257265090942383
1712257503339655200,5.5386552734375,0.011685371398925781,0.040177345275878906,-0.027501016855239868
1712257503349661000,5.548660888671875,0.006703376770019531,0.06857967376708984,-0.052200883626937866
1712257503359666700,5.558666748046875,0.01586627960205078,0.09163475036621094,-0.05478289723396301
1712257503369672700,5.568672607421875,0.025157928466796875,0.08513832092285156,-0.021121293306350708
1712257503379678500,5.578678466796875,-0.003246307373046875,0.06417560577392578,-0.03329989314079285
1712257503389684200,5.588684326171875,-0.0265350341796875,0.020218372344970703,-0.0034976601600646973
1712257503399690000,5.59868994140625,-0.030637741088867188,0.01493072509765625,0.03808113932609558
1712257503409696000,5.608696044921875,-0.020481109619140625,-0.004330635070800781,0.0629861056804657
1712257503419701800,5.61870166015625,-0.005818367004394531,-0.03253173828125,0.07251307368278503
1712257503429707500,5.62870751953125,0.022630691528320312,-0.027063846588134766,0.0720880925655365
1712257503439713500,5.638713623046875,0.06009960174560547,-0.031148910522460938,0.033022940158843994
1712257503449719300,5.64871923828125,0.10646533966064453,-0.016342639923095703,-0.06836310029029846
1712257503459725000,5.65872509765625,0.14733028411865234,0.021969318389892578,-0.14594829082489014
1712257503469730800,5.668730712890625,0.10266304016113281,0.026903152465820312,-0.13762107491493225
1712257503479736800,5.67873681640625,0.049124717712402344,0.04618358612060547,-0.07195493578910828
1712257503489742600,5.68874267578125,-0.01309967041015625,0.03701019287109375,0.013352751731872559
1712257503499748600,5.69874853515625,-0.03175926208496094,0.02282428741455078,0.07974779605865479
1712257503509754400,5.70875439453125,-0.07821273803710938,0.017927169799804688,0.09384453296661377
1712257503519760400,5.718760498046875,-0.1899709701538086,0.046459197998046875,0.0789484977722168
1712257503529766100,5.72876611328125,-0.2626466751098633,0.06613302230834961,0.039789557456970215
1712257503539772200,5.738772216796875,-0.2640695571899414,0.058435916900634766,0.03419995307922363
1712257503549778000,5.74877783203125,-0.20473575592041016,0.061214447021484375,0.05737394094467163
1712257503559784000,5.758783935546875,-0.09953975677490234,0.05487632751464844,0.10010349750518799
1712257503569789700,5.768789794921875,0.013521194458007812,0.05746746063232422,0.08713757991790771
1712257503579795700,5.778795654296875,0.13945770263671875,0.034964561462402344,0.05725961923599243
1712257503589801500,5.788801513671875,0.23139667510986328,0.038840293884277344,-0.01380854845046997
1712257503599807500,5.798807373046875,0.18155479431152344,0.026490211486816406,-0.088585764169693
1712257503609813200,5.808813232421875,0.08594131469726562,-0.0006995201110839844,-0.10612154006958008
1712257503619819300,5.8188193359375,0.0060825347900390625,-0.008601665496826172,-0.1003771722316742
1712257503629825000,5.828824951171875,-0.03991127014160156,0.0081024169921875,-0.12348806858062744
1712257503639831000,5.8388310546875,-0.07646560668945312,0.044957637786865234,-0.15156671404838562
1712257503649836800,5.8488369140625,-0.09908103942871094,0.0687551498413086,-0.1373061239719391
1712257503659842800,5.8588427734375,-0.0794992446899414,0.09328365325927734,-0.10910862684249878
1712257503669848600,5.8688486328125,-0.06517982482910156,0.09913492202758789,-0.0633774995803833
1712257503679854600,5.8788544921875,-0.05584144592285156,0.0626215934753418,-0.05169004201889038
1712257503689860400,5.8888603515625,0.019439697265625,0.04980945587158203,-0.053581416606903076
1712257503699866400,5.898866455078125,0.14107036590576172,0.04560422897338867,-0.05567348003387451
1712257503709872000,5.9088720703125,0.19994640350341797,0.017094135284423828,-0.08247736096382141
1712257503719878100,5.918878173828125,0.21593093872070312,-0.016580581665039062,-0.057180941104888916
1712257503729884000,5.9288837890625,0.10940074920654297,-0.03143882751464844,-0.007008492946624756
1712257503739890000,5.938889892578125,-0.033397674560546875,-0.050398826599121094,0.026640236377716064
1712257503749895700,5.948895751953125,-0.09404659271240234,-0.031107425689697266,0.07145869731903076
1712257503759901700,5.958901611328125,-0.1069488525390625,0.0027222633361816406,0.09184706211090088
1712257503769907500,5.968907470703125,-0.11060905456542969,0.0464472770690918,0.058159828186035156
1712257503779913500,5.97891357421875,-0.0341949462890625,0.06140613555908203,0.056841373443603516
1712257503789919200,5.988919189453125,0.06015491485595703,0.0753927230834961,0.04109770059585571
1712257503799925200,5.99892529296875,0.10670948028564453,0.07797622680664062,0.02557086944580078
1712257503809931000,6.008930908203125,0.07351303100585938,0.04070711135864258,0.03356581926345825
1712257503819937000,6.01893701171875,0.01776599884033203,0.05030012130737305,-0.08607709407806396
1712257503829942800,6.02894287109375,0.03820610046386719,0.06482553482055664,-0.11121907830238342
1712257503839948800,6.03894873046875,0.011092185974121094,0.06561994552612305,-0.0540580153465271
1712257503849954600,6.04895458984375,-0.04398918151855469,0.03396129608154297,-0.017982780933380127
1712257503859960600,6.058960693359375,-0.10771560668945312,-0.0017290115356445312,0.05636066198348999
1712257503869966300,6.06896630859375,-0.21786880493164062,-0.007863044738769531,0.04087972640991211
1712257503879972400,6.078972412109375,-0.24201393127441406,0.011041641235351562,0.05709517002105713
1712257503889978000,6.08897802734375,-0.12946128845214844,0.021038532257080078,0.08028936386108398
1712257503899984000,6.09898388671875,-0.07525825500488281,-0.016119003295898438,0.06917005777359009
1712257503909990000,6.108989990234375,-0.08330821990966797,-0.02419567108154297,0.04946887493133545
1712257503919995600,6.11899560546875,-0.05364418029785156,-0.01319122314453125,0.03540778160095215
1712257503930001700,6.129001708984375,0.00873565673828125,0.07242727279663086,-0.015716493129730225
1712257503940007400,6.13900732421875,0.018749237060546875,0.0991067886352539,-0.04664576053619385
1712257503950013400,6.149013427734375,0.0620574951171875,0.07254552841186523,-0.03938943147659302
1712257503960019200,6.159019287109375,0.1194448471069336,0.05926179885864258,-0.018497169017791748
1712257503970025200,6.169025146484375,0.05405139923095703,0.054325103759765625,-0.016141653060913086
1712257503980031000,6.179031005859375,-0.04318523406982422,0.011696815490722656,0.010179221630096436
1712257503990037000,6.189037109375,-0.11102962493896484,-0.03855752944946289,0.05425119400024414
1712257504000042800,6.199042724609375,-0.13165283203125,-0.043482303619384766,0.021654486656188965
1712257504010048800,6.209048828125,-0.11514854431152344,0.0004057884216308594,-0.000057756900787353516
1712257504020054500,6.219054443359375,-0.10434341430664062,0.03522062301635742,0.009148120880126953
1712257504030060500,6.229060546875,-0.07554912567138672,0.04691886901855469,-0.06448054313659668
1712257504040066300,6.23906640625,-0.038242340087890625,0.0639200210571289,-0.13175714015960693
1712257504050072300,6.249072265625,0.040854454040527344,0.08982372283935547,-0.11214238405227661
1712257504060078000,6.259078125,0.07677841186523438,0.08566951751708984,-0.07674658298492432
1712257504070084000,6.269083984375,0.037387847900390625,0.07069969177246094,-0.05943739414215088
1712257504080089900,6.27908984375,-0.02467823028564453,0.060418128967285156,-0.048093199729919434
1712257504090095900,6.289095947265625,-0.06678390502929688,0.05529356002807617,-0.0068367719650268555
1712257504100101600,6.2991015625,-0.12237071990966797,0.013016700744628906,0.0741720199584961
1712257504110107600,6.309107666015625,-0.1632070541381836,-0.023331165313720703,0.08380013704299927
1712257504120113400,6.319113525390625,-0.12825870513916016,0.002292633056640625,0.03399097919464111
1712257504130119400,6.329119384765625,-0.1081991195678711,0.03699064254760742,-0.046243488788604736
1712257504140125200,6.339125244140625,-0.04619312286376953,0.05698442459106445,-0.06273120641708374
1712257504150131000,6.349130859375,0.028964996337890625,0.03890705108642578,-0.08397424221038818
1712257504160136700,6.35913671875,0.06998538970947266,0.0635385513305664,-0.09184157848358154
1712257504170142700,6.369142822265625,0.12469863891601562,0.05445289611816406,-0.04404127597808838
1712257504180148500,6.3791484375,0.0847015380859375,0.035372257232666016,-0.07251334190368652
1712257504190154200,6.389154296875,0.06871509552001953,0.04065084457397461,-0.10581684112548828
1712257504200160300,6.39916015625,0.09986686706542969,0.046324729919433594,-0.05413222312927246
1712257504210166000,6.409166015625,0.11642742156982422,0.03767251968383789,-0.01272737979888916
1712257504220171800,6.419171875,0.010313034057617188,0.03839731216430664,0.0005662441253662109
1712257504230177500,6.429177490234375,-0.14152908325195312,0.025723934173583984,0.042443811893463135
1712257504240183600,6.43918359375,-0.20657062530517578,0.018869876861572266,0.07471257448196411
1712257504250189300,6.449189208984375,-0.15326690673828125,0.04568290710449219,0.10842400789260864
1712257504260195000,6.459195068359375,-0.044437408447265625,0.0768122673034668,0.0670173168182373
1712257504270201000,6.469201171875,0.024984359741210938,0.060407161712646484,0.03437834978103638
1712257504280206800,6.479206787109375,0.10286235809326172,0.0630960464477539,0.00939178466796875
1712257504290212600,6.489212646484375,0.22238826751708984,0.05548572540283203,-0.021781206130981445
1712257504300218400,6.49921826171875,0.23253345489501953,0.03693819046020508,-0.06305307149887085
1712257504310224400,6.509224365234375,0.1962747573852539,0.007649421691894531,-0.09006482362747192
1712257504320230100,6.519230224609375,0.13285541534423828,0.0014052391052246094,-0.06953871250152588
1712257504330236000,6.52923583984375,0.06610584259033203,0.013474464416503906,-0.06361764669418335
1712257504340242000,6.539241943359375,-0.07018756866455078,0.04429340362548828,-0.029865145683288574
1712257504350247700,6.54924755859375,-0.17186737060546875,0.010057926177978516,0.035592079162597656
1712257504360253400,6.55925341796875,-0.1595773696899414,-0.012549400329589844,0.09908068180084229
1712257504370259200,6.56925927734375,-0.2092294692993164,-0.029117584228515625,0.18578970432281494
1712257504380265200,6.57926513671875,-0.3200206756591797,-0.049059391021728516,0.14668965339660645
1712257504390271000,6.58927099609375,-0.3639078140258789,0.0033426284790039062,0.05386221408843994
1712257504400276700,6.59927685546875,-0.3041210174560547,0.027725696563720703,0.01557612419128418
1712257504410282800,6.60928271484375,-0.19396209716796875,0.01024627685546875,0.010610878467559814
1712257504420288500,6.61928857421875,-0.10011005401611328,0.02710103988647461,0.01777505874633789
1712257504430294300,6.629294189453125,0.039409637451171875,0.053513526916503906,0.03972625732421875
1712257504440300000,6.639300048828125,0.05016136169433594,0.1070857048034668,-0.027463912963867188
1712257504450306000,6.64930615234375,0.00042438507080078125,0.09235095977783203,-0.08117008209228516
1712257504460311800,6.659311767578125,-0.03823661804199219,0.05708599090576172,-0.11367183923721313
1712257504470317600,6.669317626953125,-0.07086181640625,0.0440363883972168,-0.15222901105880737
1712257504480323600,6.679323486328125,-0.1073007583618164,0.030036449432373047,-0.1783198118209839
1712257504490329300,6.689329345703125,-0.12919235229492188,0.016303062438964844,-0.15974587202072144
1712257504500335000,6.699335205078125,-0.10432147979736328,0.04143333435058594,-0.1391211748123169
1712257504510340900,6.7093408203125,0.023180007934570312,0.052674293518066406,-0.10226714611053467
1712257504520347000,6.719346923828125,0.1105794906616211,0.06419849395751953,-0.10752624273300171
1712257504530352600,6.7293525390625,0.15371990203857422,0.10483312606811523,-0.14657551050186157
1712257504540358700,6.739358642578125,0.2619810104370117,0.0937962532043457,-0.09887385368347168
1712257504550364400,6.749364501953125,0.31708431243896484,0.07790184020996094,-0.05030578374862671
1712257504560370400,6.759370361328125,0.3010530471801758,0.023589611053466797,-0.011041820049285889
1712257504570376200,6.769376220703125,0.26687049865722656,0.015662193298339844,0.07391959428787231
1712257504580382200,6.77938232421875,0.09219741821289062,-0.026153564453125,0.09972125291824341
1712257504590388000,6.789387939453125,0.009485244750976562,0.013111114501953125,0.0713655948638916
1712257504600394000,6.79939404296875,-0.0064144134521484375,0.005377292633056641,0.040258586406707764
1712257504610399700,6.809399658203125,0.062468528747558594,0.035990238189697266,0.028272271156311035
1712257504620405800,6.81940576171875,0.130218505859375,0.07100391387939453,-0.012966036796569824
1712257504630411500,6.82941162109375,0.17824935913085938,0.09575605392456055,-0.026558637619018555
1712257504640417500,6.83941748046875,0.22592544555664062,0.10534524917602539,-0.06508487462997437
1712257504650423300,6.84942333984375,0.18869686126708984,0.11379337310791016,-0.07670432329177856
1712257504660429300,6.85942919921875,0.1151275634765625,0.0973048210144043,-0.04224127531051636
1712257504670435000,6.86943505859375,-0.022917747497558594,0.056905269622802734,0.006843626499176025
1712257504680441000,6.879441162109375,-0.12578773498535156,0.054653167724609375,0.005404949188232422
1712257504690446800,6.88944677734375,-0.22731876373291016,0.03868436813354492,-0.007813870906829834
1712257504700452900,6.899452880859375,-0.29474639892578125,0.028517723083496094,0.018663346767425537
1712257504710458600,6.909458740234375,-0.3617277145385742,0.010193347930908203,0.03717672824859619
1712257504720464600,6.919464599609375,-0.43320751190185547,0.0028815269470214844,-0.01638948917388916
1712257504730470400,6.929470458984375,-0.44316577911376953,0.015728473663330078,-0.06037282943725586
1712257504740476200,6.93947607421875,-0.46308135986328125,0.04350996017456055,-0.10984790325164795
1712257504750482200,6.949482177734375,-0.5730428695678711,0.0677189826965332,-0.14648759365081787
1712257504760488000,6.959488037109375,-0.49863433837890625,0.07051610946655273,-0.18796679377555847
1712257504770494000,6.969493896484375,-0.3648700714111328,0.07062721252441406,-0.09664350748062134
1712257504780499700,6.979499755859375,-0.22882366180419922,0.01523447036743164,0.013274431228637695
1712257504790505700,6.989505615234375,-0.12319087982177734,-0.020339012145996094,0.07283657789230347
1712257504800511500,6.999511474609375,-0.009314537048339844,-0.009280681610107422,0.12119942903518677
1712257504810517500,7.009517578125,0.051848411560058594,0.009136676788330078,0.12545162439346313
1712257504820523300,7.019523193359375,0.01869487762451172,-0.012105464935302734,0.13816934823989868
1712257504830529300,7.029529296875,0.10929298400878906,-0.015653610229492188,0.09804552793502808
1712257504840535000,7.03953515625,0.2840232849121094,0.007532596588134766,0.04233372211456299
1712257504850541000,7.049541015625,0.46631622314453125,0.04282808303833008,-0.04527783393859863
1712257504860546800,7.059546875,0.4724464416503906,0.061595916748046875,-0.08822610974311829
1712257504870552800,7.069552734375,0.4887685775756836,0.05967426300048828,-0.08582183718681335
1712257504880558600,7.07955859375,0.3736457824707031,0.04718494415283203,-0.0664297342300415
1712257504890564600,7.089564697265625,0.18993473052978516,0.0016756057739257812,-0.019013822078704834
1712257504900570400,7.0995703125,0.037215232849121094,-0.03330707550048828,0.07729673385620117
1712257504910576400,7.109576416015625,-0.0949563980102539,-0.01917409896850586,0.05198168754577637
1712257504920582100,7.11958203125,-0.11777305603027344,0.03000354766845703,0.004379570484161377
1712257504930588200,7.129588134765625,0.009512901306152344,0.052154541015625,0.037474870681762695
1712257504940594000,7.139593994140625,0.11050224304199219,0.09906721115112305,0.030578553676605225
1712257504950600000,7.149599853515625,0.19057846069335938,0.1323995590209961,-0.022070586681365967
1712257504960605700,7.159605712890625,0.2880678176879883,0.3021106719970703,-0.12228092551231384
1712257504970611700,7.16961181640625,0.6301116943359375,0.5130081176757812,-0.4639401137828827
1712257504980617500,7.179617431640625,0.5351266860961914,0.010011672973632812,-0.036357998847961426
1712257504990623500,7.18962353515625,0.35369300842285156,0.07681035995483398,-0.0638393759727478
1712257505000629200,7.199629150390625,0.09164237976074219,-0.006536960601806641,0.022508561611175537
1712257505010635300,7.20963525390625,-0.06190967559814453,-0.14650392532348633,0.11964154243469238
1712257505020641000,7.21964111328125,-0.2601766586303711,-0.2038285732269287,0.30587106943130493
1712257505030647000,7.22964697265625,-0.21560096740722656,-0.1366596221923828,0.2926291823387146
1712257505040652800,7.23965283203125,-0.13010501861572266,-0.11573171615600586,0.13502413034439087
1712257505050658800,7.249658935546875,-0.2728452682495117,-0.003380298614501953,0.02243906259536743
1712257505060664600,7.25966455078125,-0.37171268463134766,0.019595623016357422,-0.013638436794281006
1712257505070670600,7.269670654296875,-0.2814054489135742,0.01089620590209961,-0.03919607400894165
1712257505080676400,7.27967626953125,-0.02336883544921875,0.059581756591796875,-0.08909377455711365
1712257505090682400,7.289682373046875,0.22151947021484375,0.09707927703857422,-0.10712885856628418
1712257505100688100,7.299688232421875,0.2893400192260742,0.10792875289916992,-0.0599057674407959
1712257505110694100,7.309694091796875,0.17354488372802734,0.05958366394042969,-0.008104085922241211
1712257505120700000,7.319699951171875,-0.05280017852783203,-0.008126258850097656,0.11527037620544434
1712257505130705700,7.32970556640625,-0.2472400665283203,-0.03238964080810547,0.15437299013137817
1712257505140711400,7.33971142578125,-0.3309593200683594,0.0017933845520019531,0.09075021743774414
1712257505150717400,7.349717529296875,-0.3061370849609375,-0.009291648864746094,0.07558071613311768
1712257505160723200,7.35972314453125,-0.226165771484375,-0.008861064910888672,0.042368292808532715
1712257505170729000,7.36972900390625,-0.16240310668945312,0.011756420135498047,0.03975999355316162
1712257505180735000,7.37973486328125,-0.11900711059570312,0.009382247924804688,0.009811580181121826
1712257505190740700,7.38974072265625,-0.06704044342041016,-0.006517887115478516,-0.05972835421562195
1712257505200746500,7.39974658203125,0.031388282775878906,0.11881160736083984,-0.049793124198913574
1712257505210752300,7.409752197265625,0.2554283142089844,0.025179386138916016,-0.058577924966812134
1712257505220758300,7.41975830078125,0.39194774627685547,0.05407905578613281,-0.07218468189239502
1712257505230764000,7.429763916015625,0.4151430130004883,0.08328437805175781,0.035130590200424194
1712257505240769800,7.439769775390625,0.3170299530029297,0.03348541259765625,0.04671597480773926
1712257505250775800,7.44977587890625,0.10833072662353516,-0.007546901702880859,0.07088860869407654
1712257505260781600,7.459781494140625,-0.11098194122314453,0.008608341217041016,0.08477729558944702
1712257505270787300,7.469787353515625,-0.1715087890625,0.015656471252441406,0.02287435531616211
1712257505280793000,7.47979296875,-0.24086856842041016,0.01865530014038086,0.0195920467376709
1712257505290799000,7.489799072265625,-0.3570432662963867,0.04675579071044922,0.04196649789810181
1712257505300804900,7.499804931640625,-0.26493358612060547,0.014838695526123047,0.13519811630249023
1712257505310810600,7.509810546875,-0.16541671752929688,0.0977783203125,-0.03012526035308838
1712257505320816600,7.519816650390625,-0.058266639709472656,0.052881717681884766,0.025228500366210938
1712257505330822400,7.529822509765625,-0.014115333557128906,0.027858257293701172,0.002096712589263916
1712257505340828200,7.539828125,-0.03642082214355469,0.0452570915222168,-0.06321156024932861
1712257505350834200,7.549834228515625,-0.006359100341796875,0.024058818817138672,-0.08790013194084167
1712257505360840000,7.55983984375,-0.004975318908691406,0.031094074249267578,-0.1057029664516449
1712257505370845700,7.569845703125,0.010313034057617188,0.038204193115234375,-0.14032351970672607
1712257505380851500,7.5798515625,0.058071136474609375,0.05979728698730469,-0.11776787042617798
1712257505390857500,7.589857421875,0.05794811248779297,0.062172889709472656,-0.08128249645233154
1712257505400863200,7.59986328125,0.019949913024902344,0.06486845016479492,-0.058976709842681885
1712257505410869000,7.609868896484375,-0.027167320251464844,0.058844566345214844,-0.05153977870941162
1712257505420875000,7.619875,-0.05504131317138672,0.044339656829833984,-0.03056502342224121
1712257505430880800,7.629880859375,0.011599540710449219,0.01622915267944336,-0.019542455673217773
1712257505440886500,7.639886474609375,0.10095405578613281,-0.0026335716247558594,-0.03648829460144043
1712257505450892300,7.649892333984375,0.21288394927978516,0.0058803558349609375,-0.02401435375213623
1712257505460898300,7.659898193359375,0.28142642974853516,0.03585672378540039,-0.005737423896789551
1712257505470904000,7.669904052734375,0.2980928421020508,0.04917478561401367,-0.04538089036941528
1712257505480909800,7.679909912109375,0.16935253143310547,0.013814449310302734,-0.02104109525680542
1712257505490915800,7.689915771484375,-0.013634681701660156,0.007301807403564453,0.062479376792907715
1712257505500921600,7.699921630859375,-0.13740062713623047,0.015653133392333984,0.07924187183380127
1712257505510927400,7.70992724609375,-0.20323753356933594,0.0343623161315918,0.040982067584991455
1712257505520933000,7.71993310546875,-0.231292724609375,0.02625560760498047,0.02418839931488037
1712257505530939100,7.729939208984375,-0.1657419204711914,0.05309343338012695,-0.009258627891540527
1712257505540945000,7.73994482421875,-0.08300590515136719,0.0852060317993164,-0.02243417501449585
1712257505550950700,7.74995068359375,-0.02981090545654297,0.07431983947753906,-0.05021005868911743
1712257505560956700,7.759956787109375,-0.0006580352783203125,0.03472757339477539,-0.03625595569610596
1712257505570962400,7.76996240234375,0.009629249572753906,0.03733253479003906,-0.032554686069488525
1712257505580968400,7.779968505859375,-0.03627300262451172,0.048483848571777344,-0.02065497636795044
1712257505590974200,7.78997412109375,-0.13762569427490234,0.025908470153808594,-0.013664543628692627
1712257505600980200,7.799980224609375,-0.23753833770751953,-0.0006275177001953125,-0.0387309193611145
1712257505610986000,7.809986083984375,-0.26587867736816406,-0.025424480438232422,-0.04804950952529907
1712257505620992000,7.819991943359375,-0.23812294006347656,0.0037565231323242188,-0.05711871385574341
1712257505630997800,7.829997802734375,-0.16438961029052734,0.024426937103271484,-0.06192821264266968
1712257505641003800,7.840003662109375,-0.06397151947021484,0.03128671646118164,-0.009968101978302002
1712257505651009500,7.850009521484375,0.03962516784667969,0.056583404541015625,-0.0012982487678527832
1712257505661015600,7.860015625,0.07126808166503906,0.06670427322387695,-0.01765453815460205
1712257505671021300,7.870021240234375,0.032222747802734375,0.0475921630859375,0.06417292356491089
1712257505681027300,7.88002734375,-0.019944190979003906,0.028046131134033203,0.08370077610015869
1712257505691033000,7.890033203125,-0.11836433410644531,0.008820056915283203,0.056417763233184814
1712257505701039000,7.9000390625,-0.20160484313964844,-0.0089569091796875,-0.002952277660369873
1712257505711044900,7.910044921875,-0.21373844146728516,-0.010549068450927734,0.005189478397369385
1712257505721051000,7.92005078125,-0.1701669692993164,-0.005459785461425781,-0.10862612724304199
1712257505731056600,7.930056640625,-0.06228065490722656,0.0061664581298828125,-0.14603066444396973
1712257505741062700,7.940062744140625,0.095245361328125,-0.0377802848815918,0.016980230808258057
1712257505751068400,7.950068359375,0.2785167694091797,-0.07602262496948242,0.03743857145309448
1712257505761074400,7.960074462890625,0.4123573303222656,-0.10034561157226562,0.12904423475265503
1712257505771080200,7.970080078125,0.5262432098388672,-0.07427453994750977,0.1834557056427002
1712257505781086200,7.980086181640625,0.5930309295654297,-0.03362703323364258,0.17104852199554443
1712257505791092000,7.990092041015625,0.5288200378417969,0.020798683166503906,0.07661139965057373
