time,seconds_elapsed,z,y,x
1712257394871566800,0.08656689453125,-0.07519912719726562,0.4627572298049927,0.310628741979599
1712257394881566700,0.096566650390625,-0.07238578796386719,0.4489032030105591,0.29770898818969727
1712257394891565800,0.10656591796875,0.0006437301635742188,0.3692129850387573,0.29265841841697693
1712257394901564400,0.116564453125,-0.0912017822265625,0.35765528678894043,0.2528804540634155
1712257394911563500,0.1265634765625,-0.10383319854736328,0.3766181468963623,0.2557550072669983
1712257394921562400,0.136562255859375,-0.1325693130493164,0.3759748935699463,0.23954138159751892
1712257394931561700,0.146561767578125,-0.14669036865234375,0.38890695571899414,0.26614171266555786
1712257394941560800,0.156560791015625,-0.12476253509521484,0.356126070022583,0.21492445468902588
1712257394951560200,0.166560302734375,-0.1195058822631836,0.34487462043762207,0.14932012557983398
1712257394961559600,0.1765595703125,-0.1333789825439453,0.34341979026794434,0.1396888941526413
1712257394971559000,0.186558837890625,-0.08502388000488281,0.3016681671142578,0.15718188881874084
1712257394981558300,0.196558349609375,-0.051255226135253906,0.263577938079834,0.12727300822734833
1712257394991557400,0.206557373046875,-0.06557083129882812,0.2385241985321045,0.11060725152492523
1712257395001556700,0.216556640625,-0.039383888244628906,0.25516724586486816,0.0573229044675827
1712257395011555800,0.226555908203125,-0.006152153015136719,0.25572824478149414,0.07519026100635529
1712257395021555200,0.23655517578125,-0.0377655029296875,0.23329758644104004,0.07973439991474152
1712257395031554300,0.24655419921875,-0.04793071746826172,0.20899367332458496,0.09470021724700928
1712257395041553400,0.256553466796875,-0.051181793212890625,0.16916608810424805,0.07656069099903107
1712257395051552500,0.266552490234375,-0.052448272705078125,0.13828372955322266,0.03277742862701416
1712257395061551600,0.276551513671875,-0.06130504608154297,0.12346529960632324,0.04257774353027344
1712257395071550700,0.28655078125,-0.008301734924316406,0.09596371650695801,0.09294503927230835
1712257395081549800,0.2965498046875,-0.0035610198974609375,0.046190738677978516,0.04677094519138336
1712257395091548700,0.306548583984375,0.010245323181152344,0.020022153854370117,0.018040388822555542
1712257395101547800,0.3165478515625,0.028365135192871094,0.0052814483642578125,0.03110767900943756
1712257395111547000,0.326546875,-0.023268699645996094,0.008572101593017578,0.06371983885765076
1712257395121545700,0.336545654296875,-0.08945655822753906,0.010238885879516602,0.06522125005722046
1712257395131544800,0.346544921875,-0.1126413345336914,0.01707625389099121,0.02362126111984253
1712257395141543700,0.356543701171875,-0.040200233459472656,0.03404664993286133,-0.01033031940460205
1712257395151542800,0.366542724609375,0.036789894104003906,0.023131608963012695,0.011918395757675171
1712257395161541600,0.376541748046875,0.06333065032958984,0.012922286987304688,0.033970221877098083
1712257395171540700,0.386540771484375,0.0707845687866211,-0.002224445343017578,0.06206132471561432
1712257395181539600,0.39653955078125,0.042443275451660156,0.006159067153930664,0.03683210909366608
1712257395191538400,0.406538330078125,-0.038620948791503906,0.012311458587646484,0.028790771961212158
1712257395201537500,0.41653759765625,-0.04066944122314453,0.008804082870483398,0.03334765136241913
1712257395211536400,0.426536376953125,0.0027437210083007812,0.03891730308532715,0.04046988487243652
1712257395221535200,0.43653515625,0.03417396545410156,0.05710244178771973,0.02377265691757202
1712257395231534000,0.4465341796875,-0.025312423706054688,0.03667497634887695,0.012185633182525635
1712257395241533000,0.456532958984375,-0.10154342651367188,0.011343002319335938,0.001205354928970337
1712257395251531800,0.46653173828125,-0.07732963562011719,0.04868578910827637,-0.004689127206802368
1712257395261530400,0.4765302734375,-0.02675628662109375,0.01411581039428711,-0.010634362697601318
1712257395271529200,0.486529296875,0.014211654663085938,0.010798215866088867,0.03363719582557678
1712257395281527800,0.49652783203125,0.024089813232421875,0.019360780715942383,0.024733901023864746
1712257395291526700,0.506526611328125,0.022040367126464844,-0.012935876846313477,0.025245577096939087
1712257395301525500,0.516525390625,0.015024185180664062,-0.02537393569946289,0.00672188401222229
1712257395311524000,0.526524169921875,-0.0017518997192382812,-0.015569925308227539,0.01005503535270691
1712257395321523000,0.53652294921875,0.029224395751953125,-0.002847433090209961,0.015833020210266113
1712257395331521800,0.546521728515625,0.05763435363769531,0.008184432983398438,0.016730427742004395
1712257395341520400,0.556520263671875,0.02625560760498047,0.016564607620239258,0.0007640719413757324
1712257395351519200,0.566519287109375,-0.047989845275878906,-0.01427912712097168,0.013499915599822998
1712257395361517800,0.576517822265625,-0.04821300506591797,-0.034796714782714844,0.002696424722671509
1712257395371516700,0.5865166015625,-0.01750469207763672,-0.037740230560302734,-0.001204848289489746
1712257395381515300,0.596515380859375,-0.029984474182128906,-0.04752349853515625,-0.00013002753257751465
1712257395391514000,0.60651416015625,-0.0065441131591796875,-0.03105449676513672,0.015888333320617676
1712257395401513000,0.616512939453125,0.012205123901367188,-0.04373526573181152,-0.003765791654586792
1712257395411511600,0.626511474609375,0.002208709716796875,-0.04203677177429199,0.010482072830200195
1712257395421510400,0.636510498046875,-0.024587631225585938,-0.04492807388305664,0.0340123176574707
1712257395431509200,0.64650927734375,-0.05864429473876953,-0.028194904327392578,0.027472198009490967
1712257395441508000,0.656508056640625,-0.05213165283203125,-0.02524280548095703,-0.005763590335845947
1712257395451506700,0.666506591796875,-0.05785083770751953,0.04821968078613281,0.05661073327064514
1712257395461505500,0.676505615234375,0.039478302001953125,0.008849143981933594,-0.02763327956199646
1712257395471504100,0.686504150390625,0.09112262725830078,0.056499481201171875,-0.05226093530654907
1712257395481503000,0.6965029296875,0.12122821807861328,0.044277191162109375,0.009176462888717651
1712257395491501600,0.70650146484375,0.053435325622558594,0.04546523094177246,-0.006862640380859375
1712257395501500400,0.71650048828125,0.06481361389160156,0.04831647872924805,-0.0054694414138793945
1712257395511499300,0.726499267578125,0.0644388198852539,0.0334324836730957,-0.008171766996383667
1712257395521497900,0.736497802734375,0.0713949203491211,-0.020599842071533203,0.014941781759262085
1712257395531496700,0.74649658203125,0.10239982604980469,-0.06327581405639648,0.0011253654956817627
1712257395541495600,0.75649560546875,0.10472297668457031,-0.046482086181640625,0.022228270769119263
1712257395551494100,0.766494140625,0.03768634796142578,-0.030073881149291992,0.027264952659606934
1712257395561493000,0.776492919921875,-0.002841949462890625,-0.04067826271057129,0.003390073776245117
1712257395571491800,0.786491943359375,-0.04334449768066406,0.0013332366943359375,0.02943316102027893
1712257395581490400,0.796490478515625,-0.06223773956298828,0.014503955841064453,-0.007843255996704102
1712257395591489300,0.8064892578125,-0.08815670013427734,0.0005788803100585938,-0.0441344678401947
1712257395601488000,0.81648779296875,-0.1119222640991211,0.021204710006713867,-0.04732733964920044
1712257395611486700,0.82648681640625,-0.11680412292480469,0.045331716537475586,-0.05291910469532013
1712257395621485300,0.8364853515625,-0.14806842803955078,0.05286121368408203,-0.06550253927707672
1712257395631484200,0.846484130859375,-0.16010761260986328,0.026590347290039062,-0.08534194529056549
1712257395641482800,0.856482666015625,-0.1385517120361328,0.01436305046081543,-0.0930730551481247
1712257395651481600,0.866481689453125,-0.16483592987060547,-0.002789020538330078,-0.04612775146961212
1712257395661480200,0.876480224609375,-0.1456918716430664,-0.007592439651489258,-0.03130662441253662
1712257395671479000,0.88647900390625,-0.10941314697265625,-0.011863470077514648,-0.04240866005420685
1712257395681477600,0.8964775390625,-0.023201942443847656,-0.04582643508911133,-0.008144855499267578
1712257395691476500,0.9064765625,0.06742572784423828,-0.03743410110473633,0.044146180152893066
1712257395701475000,0.91647509765625,0.07641220092773438,-0.039870500564575195,0.08766695857048035
1712257395711474000,0.926473876953125,0.08050537109375,-0.0561063289642334,0.07256868481636047
1712257395721472800,0.93647265625,0.10367870330810547,-0.03837084770202637,0.1089182198047638
1712257395731471400,0.946471435546875,0.16750526428222656,-0.03466391563415527,0.11308044195175171
1712257395741470200,0.95647021484375,0.16431713104248047,-0.0046885013580322266,0.0811503529548645
1712257395751468800,0.96646875,0.09917068481445312,0.014392852783203125,0.08130654692649841
1712257395761467600,0.976467529296875,0.0009164810180664062,0.019765615463256836,0.041258931159973145
1712257395771466500,0.986466552734375,-0.07786273956298828,0.035747528076171875,0.0015267729759216309
1712257395781465000,0.996465087890625,-0.10613346099853516,0.03639578819274902,-0.009174078702926636
1712257395791464000,1.0064638671875,-0.11518096923828125,0.02001810073852539,-0.00567212700843811
1712257395801462800,1.016462890625,-0.09320449829101562,0.016147851943969727,-0.005425155162811279
1712257395811461400,1.02646142578125,-0.07851123809814453,0.015146732330322266,0.0014527738094329834
1712257395821460200,1.036460205078125,-0.02325725555419922,-0.006778240203857422,0.03673163056373596
1712257395831459000,1.046458984375,0.05337715148925781,-0.032741546630859375,0.03329998254776001
1712257395841457700,1.056457763671875,0.08907604217529297,-0.04341912269592285,0.03494250774383545
1712257395851456500,1.06645654296875,0.1174936294555664,-0.05619525909423828,0.022992372512817383
1712257395861455000,1.076455078125,0.07647228240966797,-0.05470681190490723,0.03839212656021118
1712257395871454000,1.086453857421875,0.03791236877441406,-0.022394895553588867,0.0013030469417572021
1712257395881452800,1.096452880859375,-0.02204418182373047,0.004454135894775391,-0.01624402403831482
1712257395891451400,1.106451416015625,0.0042705535888671875,-0.0025582313537597656,-0.019221335649490356
1712257395901450200,1.1164501953125,0.013712882995605469,-0.025893688201904297,-0.03157675266265869
1712257395911449000,1.126448974609375,-0.010552406311035156,-0.01735973358154297,-0.019836455583572388
1712257395921447700,1.13644775390625,-0.07086181640625,0.0036814212799072266,-0.027265161275863647
1712257395931446500,1.146446533203125,-0.09029483795166016,0.009598970413208008,-0.015147209167480469
1712257395941445400,1.1564453125,-0.11433696746826172,0.00994729995727539,-0.05538380146026611
1712257395951444000,1.16644384765625,-0.10715103149414062,0.026514768600463867,-0.044458210468292236
1712257395961442800,1.17644287109375,-0.07344436645507812,0.04704689979553223,-0.042633622884750366
1712257395971441700,1.186441650390625,-0.05867576599121094,0.006855487823486328,-0.07921789586544037
1712257395981440300,1.196440185546875,-0.03914928436279297,0.012267112731933594,-0.06057393550872803
1712257395991439000,1.206439208984375,-0.02446460723876953,0.01316380500793457,-0.04001155495643616
1712257396001438000,1.21643798828125,-0.017027854919433594,0.01446676254272461,-0.03240039944648743
1712257396011436800,1.226436767578125,0.0022916793823242188,0.006611347198486328,-0.020443350076675415
1712257396021435600,1.236435546875,0.0741262435913086,0.0018038749694824219,0.034534573554992676
1712257396031434800,1.246434814453125,0.11460494995117188,-0.009100675582885742,0.011858642101287842
1712257396041433600,1.25643359375,0.07822895050048828,-0.019079208374023438,-0.02245381474494934
1712257396051432700,1.2664326171875,0.058605194091796875,-0.012436866760253906,-0.0027153193950653076
1712257396061431800,1.276431884765625,0.03428459167480469,-0.006243705749511719,-0.018358886241912842
1712257396071431000,1.286430908203125,-0.035355567932128906,-0.019959449768066406,-0.019260793924331665
1712257396081429800,1.2964296875,-0.10484027862548828,0.0015521049499511719,-0.005401432514190674
1712257396091428900,1.306428955078125,-0.09995651245117188,-0.0014224052429199219,-0.020706593990325928
1712257396101428000,1.316427978515625,-0.052048683166503906,-0.006411314010620117,0.018438518047332764
1712257396111427000,1.326427001953125,-0.0042858123779296875,-0.013040781021118164,0.02768462896347046
1712257396121426000,1.336426025390625,-0.018907546997070312,-0.05492734909057617,0.03598344326019287
1712257396131425000,1.346425048828125,-0.04546928405761719,-0.041803598403930664,0.03426182270050049
1712257396141424000,1.356424072265625,-0.10081291198730469,-0.02361607551574707,0.07028797268867493
1712257396151423200,1.36642333984375,-0.07460308074951172,0.01085042953491211,0.05989721417427063
1712257396161422300,1.37642236328125,-0.07226371765136719,-0.03881502151489258,0.03780403733253479
1712257396171421400,1.38642138671875,-0.10116958618164062,-0.04495429992675781,0.009031146764755249
1712257396181420500,1.396420654296875,-0.09669971466064453,-0.0529942512512207,0.005038738250732422
1712257396191419400,1.40641943359375,-0.07556915283203125,-0.015221118927001953,0.020785152912139893
1712257396201418500,1.41641845703125,0.012668609619140625,-0.011214017868041992,0.05308657884597778
1712257396211417600,1.42641748046875,0.04576587677001953,0.009917736053466797,0.04657560586929321
1712257396221416700,1.436416748046875,0.0047321319580078125,0.009186506271362305,0.03724756836891174
1712257396231415600,1.44641552734375,-0.052921295166015625,0.01027059555053711,-0.03905540704727173
1712257396241414700,1.45641455078125,-0.0554046630859375,0.041916847229003906,0.0005492568016052246
1712257396251413800,1.466413818359375,-0.05046844482421875,0.05823230743408203,-0.029370099306106567
1712257396261412600,1.47641259765625,-0.059818267822265625,0.023885726928710938,-0.0469057559967041
1712257396271411700,1.48641162109375,0.014521598815917969,0.013888120651245117,-0.028231441974639893
1712257396281410800,1.496410888671875,0.05753517150878906,-0.007279872894287109,-0.04523622989654541
1712257396291410000,1.506409912109375,0.08365154266357422,-0.0495913028717041,-0.020376503467559814
1712257396301408800,1.51640869140625,0.06173992156982422,-0.050672054290771484,-0.0023063719272613525
1712257396311407600,1.52640771484375,0.08762931823730469,-0.029822349548339844,0.0036492347717285156
1712257396321406500,1.536406494140625,0.08001136779785156,-0.016203641891479492,-0.0072370171546936035
1712257396331405300,1.5464052734375,0.06292533874511719,-0.012674331665039062,-0.020033180713653564
1712257396341404200,1.556404052734375,0.041141510009765625,-0.02160048484802246,-0.005690038204193115
1712257396351403000,1.566403076171875,0.007403373718261719,-0.006666898727416992,-0.03918394446372986
1712257396361401600,1.576401611328125,-0.03351306915283203,0.010600566864013672,-0.038789212703704834
1712257396371400400,1.586400390625,-0.052799224853515625,0.0346829891204834,-0.03814494609832764
1712257396381399000,1.59639892578125,-0.06003856658935547,0.02978038787841797,-0.04514080286026001
1712257396391398000,1.60639794921875,-0.06243896484375,0.02711963653564453,-0.026170700788497925
1712257396401396500,1.616396484375,-0.04080009460449219,0.007320880889892578,-0.03849092125892639
1712257396411395300,1.626395263671875,-0.062137603759765625,-0.00334930419921875,-0.008102267980575562
1712257396421394000,1.636393798828125,-0.07143592834472656,-0.031046628952026367,0.01738157868385315
1712257396431392800,1.646392822265625,-0.06404304504394531,-0.041610002517700195,0.006308823823928833
1712257396441391600,1.6563916015625,-0.049579620361328125,-0.04922199249267578,0.004115194082260132
1712257396451390200,1.66639013671875,-0.01619720458984375,-0.04860544204711914,0.008557915687561035
1712257396461389000,1.67638916015625,0.024161338806152344,-0.039847373962402344,-0.009357184171676636
1712257396471387600,1.6863876953125,0.01887035369873047,-0.030436277389526367,0.0038819611072540283
1712257396481386500,1.696386474609375,0.011176109313964844,-0.023374319076538086,0.017153918743133545
1712257396491385300,1.70638525390625,0.008257865905761719,-0.006673336029052734,0.056640565395355225
1712257396501384000,1.716384033203125,0.03654193878173828,0.007449626922607422,0.09277138113975525
1712257396511382800,1.7263828125,0.06489086151123047,-0.004892110824584961,0.08716166019439697
1712257396521381400,1.73638134765625,0.026258468627929688,-0.010276079177856445,0.06469005346298218
1712257396531380200,1.746380126953125,-0.009829521179199219,0.0004038810729980469,0.028395265340805054
1712257396541379000,1.756379150390625,-0.028888702392578125,0.017034053802490234,0.021654635667800903
1712257396551377700,1.766377685546875,-0.08121776580810547,0.044561147689819336,0.020011484622955322
1712257396561376500,1.77637646484375,-0.12613773345947266,0.037581682205200195,0.0019009411334991455
1712257396571375400,1.786375244140625,-0.12804222106933594,0.018929004669189453,-0.02073746919631958
1712257396581374000,1.7963740234375,-0.032011985778808594,-0.0035257339477539062,-0.0028110146522521973
1712257396591372800,1.806372802734375,0.020593643188476562,-0.010185956954956055,0.00029665231704711914
1712257396601371400,1.816371337890625,0.049139976501464844,-0.011584997177124023,-0.008485347032546997
1712257396611370200,1.826370361328125,0.02264404296875,0.0036334991455078125,0.03566431999206543
1712257396621369000,1.836369140625,-0.029967308044433594,0.006016731262207031,0.03389117121696472
1712257396631367700,1.84636767578125,0.025289535522460938,-0.011255741119384766,0.0056456029415130615
1712257396641366500,1.856366455078125,0.05392169952392578,-0.01303863525390625,0.01149207353591919
1712257396651365400,1.866365478515625,0.06094932556152344,-0.019390583038330078,0.010209113359451294
1712257396661364000,1.876364013671875,0.027280807495117188,-0.023415327072143555,-0.012319386005401611
1712257396671362800,1.88636279296875,-0.039836883544921875,-0.00867605209350586,-0.022216796875
1712257396681361700,1.896361572265625,-0.0830526351928711,0.0014271736145019531,-0.032026827335357666
1712257396691360300,1.9063603515625,-0.061593055725097656,-0.0077207088470458984,-0.03485453128814697
1712257396701359000,1.916359130859375,-0.06420612335205078,-0.004362821578979492,-0.030363142490386963
1712257396711357700,1.926357666015625,-0.0333099365234375,-0.005850076675415039,0.0010882914066314697
1712257396721356500,1.9363564453125,-0.019135475158691406,-0.0242311954498291,-0.013112068176269531
1712257396731355100,1.946355224609375,0.018951416015625,-0.03780007362365723,-0.01941254734992981
1712257396741354000,1.95635400390625,0.018697738647460938,-0.04649662971496582,-0.006195425987243652
1712257396751352600,1.9663525390625,-0.007915496826171875,-0.00004506111145019531,-0.012034416198730469
1712257396761351400,1.976351318359375,-0.06067657470703125,-0.014223098754882812,-0.029983341693878174
1712257396771350000,1.98635009765625,-0.048729896545410156,-0.021481990814208984,-0.03351670503616333
1712257396781348900,1.996348876953125,-0.04171466827392578,0.0006315708160400391,0.003339797258377075
1712257396791347500,2.006347412109375,-0.013103485107421875,0.022675514221191406,0.0009782016277313232
1712257396801346300,2.01634619140625,0.01312255859375,0.015993356704711914,-0.042366236448287964
1712257396811345000,2.026344970703125,-0.02536773681640625,0.011925458908081055,0.0034360289573669434
1712257396821343700,2.03634375,0.015187263488769531,0.007777690887451172,0.010430514812469482
1712257396831342600,2.046342529296875,0.019870758056640625,0.00347137451171875,0.007760971784591675
1712257396841341200,2.056341064453125,0.015023231506347656,0.0013964176177978516,0.00004786252975463867
1712257396851340000,2.066340087890625,0.0030345916748046875,0.00876474380493164,0.049564480781555176
1712257396861338600,2.076338623046875,0.05321788787841797,0.014243364334106445,0.006882756948471069
1712257396871337500,2.08633740234375,0.034020423889160156,-0.028342247009277344,-0.00973007082939148
1712257396881336000,2.096336181640625,0.02925586700439453,-0.013748645782470703,0.014347046613693237
1712257396891335000,2.1063349609375,-0.023355484008789062,-0.028080463409423828,0.024328172206878662
1712257396901333800,2.116333740234375,-0.10710620880126953,-0.028141021728515625,-0.0006011724472045898
1712257396911332400,2.126332275390625,-0.12399768829345703,-0.025059938430786133,-0.011052846908569336
1712257396921331200,2.136331298828125,-0.12675762176513672,-0.0401310920715332,0.002254009246826172
1712257396931330000,2.146330078125,-0.0554656982421875,-0.013729333877563477,0.0056941211223602295
1712257396941329000,2.156328857421875,-0.02969837188720703,-0.011056661605834961,0.013408362865447998
1712257396951327500,2.166327392578125,-0.049241065979003906,0.0075528621673583984,-0.0024004876613616943
1712257396961326300,2.176326416015625,-0.051705360412597656,0.012714862823486328,0.0067092180252075195
1712257396971325000,2.186324951171875,-0.05882549285888672,0.019728422164916992,0.003677546977996826
1712257396981323800,2.19632373046875,-0.11376094818115234,0.0264432430267334,-0.023235023021697998
1712257396991322400,2.206322265625,-0.06815910339355469,0.014004230499267578,-0.006490379571914673
1712257397001321200,2.2163212890625,0.027568817138671875,-0.0048675537109375,-0.009549915790557861
1712257397011319800,2.22631982421875,0.027289390563964844,-0.015467166900634766,0.0322951078414917
1712257397021318700,2.236318603515625,0.022157669067382812,-0.054473161697387695,0.025867730379104614
1712257397031317500,2.2463173828125,0.088653564453125,-0.030576229095458984,0.023121356964111328
1712257397041316400,2.25631640625,0.061722755432128906,-0.02089834213256836,0.020804286003112793
1712257397051315000,2.26631494140625,0.046807289123535156,-0.009017229080200195,0.0041838884353637695
1712257397061313800,2.276313720703125,-0.008687019348144531,-0.012164115905761719,-0.011547505855560303
1712257397071312600,2.286312744140625,-0.07130813598632812,-0.03938150405883789,-0.015979856252670288
1712257397081311200,2.296311279296875,-0.08369731903076172,-0.028018712997436523,0.01024097204208374
1712257397091310000,2.30631005859375,-0.031577110290527344,-0.018355131149291992,-0.019306689500808716
1712257397101309000,2.316308837890625,-0.020234107971191406,-0.027519941329956055,0.015717357397079468
1712257397111307800,2.326307861328125,-0.05675029754638672,-0.03191423416137695,0.007067680358886719
1712257397121306600,2.336306640625,-0.06188392639160156,-0.04702639579772949,0.010734021663665771
1712257397131305500,2.346305419921875,-0.07902717590332031,-0.03333759307861328,0.010181665420532227
1712257397141304300,2.35630419921875,-0.06980323791503906,-0.0365595817565918,-0.0045663416385650635
1712257397151303200,2.36630322265625,-0.08220958709716797,-0.022594928741455078,0.016124755144119263
1712257397161302300,2.37630224609375,-0.0874490737915039,-0.010873794555664062,0.007567882537841797
1712257397171301000,2.386301025390625,-0.07104969024658203,0.0005862712860107422,0.0006385445594787598
1712257397181300000,2.396300048828125,-0.040259361267089844,-0.014415502548217773,0.02974751591682434
1712257397191298800,2.406298828125,-0.01194000244140625,-0.007517576217651367,-0.0010864734649658203
1712257397201297700,2.416297607421875,-0.0029115676879882812,-0.02651810646057129,-0.01185503602027893
1712257397211296500,2.426296630859375,-0.03472137451171875,-0.013924598693847656,-0.021930158138275146
1712257397221295400,2.43629541015625,0.00299072265625,-0.0019268989562988281,-0.0019128620624542236
1712257397231294200,2.446294189453125,0.0071868896484375,-0.0019459724426269531,-0.01519310474395752
1712257397241293000,2.45629296875,-0.00997161865234375,0.021089553833007812,-0.011362582445144653
1712257397251292000,2.4662919921875,-0.0029726028442382812,0.04803133010864258,0.013675779104232788
1712257397261290500,2.47629052734375,-0.03881072998046875,0.05960488319396973,-0.009788095951080322
1712257397271289600,2.48628955078125,-0.045696258544921875,-0.0016338825225830078,-0.02115112543106079
1712257397281288400,2.496288330078125,0.0071582794189453125,-0.02881455421447754,-0.00877612829208374
1712257397291287300,2.506287353515625,0.11248302459716797,-0.02862262725830078,0.007410943508148193
1712257397301286100,2.5162861328125,0.1745929718017578,-0.0037860870361328125,0.0032720863819122314
1712257397311285000,2.526284912109375,0.17934799194335938,-0.02745223045349121,-0.011907577514648438
1712257397321283800,2.536283935546875,0.14332962036132812,-0.02950263023376465,-0.008863091468811035
1712257397331282700,2.54628271484375,0.13132476806640625,-0.03667902946472168,0.008764415979385376
1712257397341281500,2.556281494140625,0.10500812530517578,0.0015184879302978516,0.01605287194252014
1712257397351280400,2.5662802734375,0.19867420196533203,0.09138274192810059,0.051189929246902466
1712257397361279200,2.576279296875,0.1802520751953125,0.02149343490600586,-0.00811094045639038
1712257397371278000,2.586278076171875,0.2794303894042969,-0.009033679962158203,-0.04741808772087097
1712257397381277000,2.59627685546875,0.4416055679321289,-0.03807711601257324,-0.0333113968372345
1712257397391275500,2.606275634765625,0.671961784362793,0.00030803680419921875,0.028454750776290894
1712257397401274400,2.6162744140625,1.2077484130859375,0.11224222183227539,0.002743750810623169
1712257397411273200,2.626273193359375,1.6525087356567383,0.1714627742767334,-0.09744051098823547
1712257397421271800,2.636271728515625,2.2399215698242188,0.2659471035003662,-0.16031724214553833
1712257397431270700,2.646270751953125,2.552661895751953,0.127366304397583,-0.15753436088562012
1712257397441269500,2.65626953125,2.020319938659668,0.025814533233642578,0.03752928972244263
1712257397451268000,2.66626806640625,1.371861457824707,-0.04326796531677246,-0.21545900404453278
1712257397461267000,2.676266845703125,0.6549615859985352,-0.10868620872497559,0.09469091892242432
1712257397471265500,2.686265625,0.16450023651123047,0.010885000228881836,0.35288459062576294
1712257397481264400,2.696264404296875,0.09522342681884766,-0.04712677001953125,0.2467920184135437
1712257397491263000,2.706262939453125,0.05303001403808594,0.03595900535583496,0.10037180781364441
1712257397501261800,2.71626171875,0.4549875259399414,0.013260126113891602,-0.141629159450531
1712257397511260700,2.7262607421875,1.0207910537719727,0.04828929901123047,-0.22809016704559326
1712257397521259300,2.73625927734375,2.380777359008789,0.013583660125732422,-0.20421472191810608
1712257397531258000,2.746258056640625,3.171961784362793,-0.026056289672851562,-0.2482413947582245
1712257397541257000,2.756257080078125,3.2095775604248047,-0.1921544075012207,-0.09643003344535828
1712257397551255600,2.766255615234375,2.4038734436035156,-0.41874170303344727,0.08643949031829834
1712257397561254400,2.77625439453125,1.3013725280761719,-0.6573543548583984,0.4289986193180084
1712257397571253200,2.786253173828125,0.00030231475830078125,-0.6918506622314453,0.603792130947113
1712257397581251800,2.796251953125,-1.3416366577148438,-0.6551432609558105,0.4082774519920349
1712257397591250700,2.806250732421875,-2.4748902320861816,-0.5646085739135742,0.2104807198047638
1712257397601249300,2.816249267578125,-3.191176414489746,-0.35111236572265625,0.05995558202266693
1712257397611248000,2.826248046875,-3.4393253326416016,-0.11809301376342773,-0.11889766901731491
1712257397621246700,2.836246826171875,-3.2574939727783203,-0.09053516387939453,-0.20295411348342896
1712257397631245600,2.84624560546875,-2.670647144317627,-0.12017011642456055,-0.2068784534931183
1712257397641244400,2.856244384765625,-1.786820411682129,-0.21408939361572266,-0.1509142816066742
1712257397651243000,2.866242919921875,-0.5563082695007324,-0.22396564483642578,-0.10529746115207672
1712257397661241900,2.876241943359375,0.6809587478637695,-0.1781620979309082,-0.10548823326826096
1712257397671240700,2.88624072265625,1.5354337692260742,-0.21959352493286133,-0.18137092888355255
1712257397681239600,2.896239501953125,1.5118331909179688,-0.2360243797302246,-0.015205752104520798
1712257397691238100,2.906238037109375,0.85015869140625,-0.2201404571533203,0.26767998933792114
1712257397701237000,2.916237060546875,0.08617401123046875,-0.079620361328125,0.33697813749313354
1712257397711235600,2.926235595703125,-0.44915056228637695,0.05852842330932617,0.35532695055007935
1712257397721234400,2.936234375,-0.6895008087158203,-0.0037994384765625,0.13745631277561188
1712257397731233000,2.94623291015625,-0.6823530197143555,-0.11431407928466797,-0.10999234020709991
1712257397741231900,2.95623193359375,-0.7693257331848145,-0.17134761810302734,0.01953311264514923
1712257397751230700,2.966230712890625,-0.8762598037719727,-0.2661619186401367,0.12688356637954712
1712257397761229300,2.976229248046875,-0.8100447654724121,-0.3242053985595703,0.0936361700296402
1712257397771228000,2.986227783203125,-0.6453180313110352,-0.326352596282959,0.0882483422756195
1712257397781226800,2.996226806640625,-0.32657337188720703,-0.19421768188476562,0.15508580207824707
1712257397791225600,3.0062255859375,-0.09101533889770508,-0.135528564453125,0.19610579311847687
1712257397801224200,3.01622412109375,-0.2787623405456543,-0.1591777801513672,0.16465529799461365
1712257397811223000,3.02622314453125,-0.829463005065918,-0.2895193099975586,0.11793926358222961
1712257397821221600,3.0362216796875,-1.3457293510437012,-0.41719770431518555,0.16484715044498444
1712257397831220500,3.046220458984375,-1.545184850692749,-0.46261072158813477,0.35357680916786194
1712257397841219000,3.056218994140625,-1.3244867324829102,-0.4376816749572754,0.24864867329597473
1712257397851218000,3.066218017578125,-0.7918844223022461,-0.3735466003417969,0.01697218418121338
1712257397861216500,3.076216552734375,-0.31854724884033203,-0.2790718078613281,-0.16305917501449585
1712257397871215400,3.08621533203125,-0.3415031433105469,-0.2435932159423828,-0.05342207849025726
1712257397881214000,3.0962138671875,-0.6244292259216309,-0.2411327362060547,0.16625621914863586
1712257397891212800,3.106212890625,-0.9649105072021484,-0.23769855499267578,0.22931504249572754
1712257397901211600,3.116211669921875,-1.217179298400879,-0.16970443725585938,0.1855984926223755
1712257397911210200,3.126210205078125,-1.2855000495910645,-0.06231212615966797,0.1278841197490692
1712257397921209000,3.136208984375,-1.2322828769683838,-0.08550834655761719,0.13158223032951355
1712257397931208000,3.1462080078125,-1.0465259552001953,-0.20899105072021484,0.10573327541351318
1712257397941206500,3.15620654296875,-0.7557411193847656,-0.3137388229370117,0.07864508032798767
1712257397951205400,3.166205322265625,-0.15387725830078125,-0.21446800231933594,0.19606590270996094
1712257397961204200,3.176204345703125,0.47259521484375,-0.06867504119873047,0.27548694610595703
1712257397971202800,3.186202880859375,0.7021894454956055,-0.020445823669433594,0.2850247025489807
1712257397981201700,3.19620166015625,0.5216150283813477,-0.00012111663818359375,0.2602022886276245
1712257397991200300,3.2062001953125,0.16178655624389648,0.02994251251220703,0.2584199011325836
1712257398001199000,3.21619921875,-0.24288177490234375,0.07335090637207031,0.26588425040245056
1712257398011506700,3.226506591796875,-0.5722541809082031,0.060791015625,0.22831377387046814
1712257398021505500,3.236505615234375,-0.6993532180786133,0.04294586181640625,0.16658025979995728
1712257398031504100,3.246504150390625,-0.6072206497192383,-0.005112648010253906,0.04889693856239319
1712257398041503000,3.2565029296875,-0.4301285743713379,-0.03279685974121094,0.04900485277175903
1712257398051501800,3.266501708984375,-0.3491387367248535,-0.05011463165283203,0.17716917395591736
1712257398061500400,3.27650048828125,-0.34947633743286133,-0.05979347229003906,0.22453027963638306
1712257398071499300,3.286499267578125,-0.3658127784729004,-0.05034065246582031,0.22664391994476318
1712257398081498000,3.296498046875,-0.21407413482666016,-0.13177490234375,0.14686846733093262
1712257398091496700,3.30649658203125,-0.27826833724975586,-0.1742715835571289,0.08675035834312439
1712257398101495600,3.31649560546875,-0.4412355422973633,-0.1752023696899414,0.0333138108253479
1712257398111494100,3.326494140625,-0.6665139198303223,-0.19455242156982422,0.03189021348953247
1712257398121493000,3.336492919921875,-0.920464038848877,-0.2317056655883789,0.0857173502445221
1712257398131491800,3.346491943359375,-1.0072073936462402,-0.2384662628173828,0.17248296737670898
1712257398141490700,3.35649072265625,-0.9492511749267578,-0.17806434631347656,0.163671612739563
1712257398151489500,3.366489501953125,-0.7282304763793945,-0.1995859146118164,0.33203887939453125
1712257398161488600,3.376488525390625,-0.6889934539794922,-0.21558570861816406,0.35406264662742615
1712257398171487500,3.386487548828125,-0.7792296409606934,-0.15620994567871094,0.3749552369117737
1712257398181486300,3.396486328125,-0.9065060615539551,-0.5000100135803223,0.2809285521507263
1712257398191485400,3.4064853515625,-0.7320990562438965,-0.5341558456420898,0.15929245948791504
1712257398201484500,3.416484619140625,-0.30942392349243164,-0.48869752883911133,0.048634618520736694
1712257398211483600,3.426483642578125,0.10593748092651367,-0.44644594192504883,-0.029744192957878113
1712257398221482500,3.436482421875,0.49796342849731445,-0.5792059898376465,-0.10233158618211746
1712257398231481600,3.446481689453125,0.7648220062255859,-0.5853428840637207,-0.041274696588516235
1712257398241480700,3.456480712890625,0.971125602722168,-0.21518182754516602,0.005950137972831726
1712257398251479800,3.466479736328125,0.8221020698547363,0.007521629333496094,0.07255393266677856
1712257398261478700,3.476478759765625,0.48990631103515625,-0.00826883316040039,0.30590105056762695
1712257398271477800,3.486477783203125,0.08260917663574219,0.1104736328125,0.010158345103263855
1712257398281476900,3.496476806640625,-0.5135974884033203,0.1084895133972168,-0.1494051069021225
1712257398291476000,3.50647607421875,-0.8545942306518555,0.02266550064086914,-0.14482684433460236
1712257398301475000,3.51647509765625,-1.1242523193359375,-0.1448054313659668,0.06420227885246277
1712257398311474200,3.52647412109375,-1.0644645690917969,-0.09828662872314453,0.16369923949241638
1712257398321473000,3.53647314453125,-0.6403284072875977,-0.30518054962158203,0.09572772681713104
1712257398331472100,3.54647216796875,-0.1817331314086914,-0.4567575454711914,0.04011149704456329
1712257398341471200,3.55647119140625,0.28046178817749023,-0.5772485733032227,-0.032139211893081665
1712257398351470300,3.56647021484375,0.7665820121765137,-0.7116012573242188,-0.12444537878036499
1712257398361469400,3.576469482421875,0.9330945014953613,-0.6358909606933594,-0.12465112656354904
1712257398371468300,3.58646826171875,0.8997383117675781,-0.5070352554321289,-0.09376052767038345
1712257398381467400,3.59646728515625,0.7571935653686523,-0.3617219924926758,-0.0013962090015411377
1712257398391466500,3.606466552734375,0.7149829864501953,-0.24004745483398438,0.05708390474319458
1712257398401465600,3.616465576171875,0.6713628768920898,-0.17954540252685547,0.007845386862754822
1712257398411464700,3.626464599609375,0.4451885223388672,-0.09495925903320312,0.0888390839099884
1712257398421463600,3.636463623046875,0.3220090866088867,-0.08010625839233398,0.14833003282546997
1712257398431462700,3.646462646484375,0.2714672088623047,-0.10640764236450195,0.08893430233001709
1712257398441461500,3.65646142578125,0.2165822982788086,-0.17098760604858398,0.0442674458026886
1712257398451460400,3.66646044921875,0.27919578552246094,-0.2113780975341797,0.05994996428489685
1712257398461459200,3.676459228515625,0.26777172088623047,-0.19658803939819336,0.09172442555427551
1712257398471458000,3.6864580078125,0.3216590881347656,-0.1684284210205078,0.034751713275909424
1712257398481457000,3.696456787109375,0.4191904067993164,-0.14850902557373047,-0.07246798276901245
1712257398491455700,3.706455810546875,0.538661003112793,-0.13442564010620117,-0.07160954177379608
1712257398501454300,3.716454345703125,0.5700511932373047,-0.06917095184326172,-0.04907798767089844
1712257398511453200,3.726453125,0.4319896697998047,-0.08232641220092773,-0.08929060399532318
1712257398521451800,3.73645166015625,0.19850921630859375,-0.075653076171875,0.0022040903568267822
1712257398531450600,3.74645068359375,-0.04508495330810547,-0.0716099739074707,0.010906308889389038
1712257398541449200,3.75644921875,-0.1420269012451172,-0.10604333877563477,-0.04688039422035217
1712257398551448000,3.766447998046875,-0.16286849975585938,-0.16699838638305664,-0.07385134696960449
1712257398561446700,3.77644677734375,-0.18894100189208984,-0.16822028160095215,-0.016223400831222534
1712257398571445500,3.786445556640625,-0.2698049545288086,-0.15909290313720703,0.10530498623847961
1712257398581444400,3.7964443359375,-0.3930978775024414,-0.14291882514953613,0.17176303267478943
1712257398591443000,3.80644287109375,-0.4153022766113281,-0.16258740425109863,0.10035350918769836
1712257398601441800,3.81644189453125,-0.3298358917236328,-0.17368650436401367,-0.003026723861694336
1712257398611440400,3.8264404296875,-0.1632862091064453,-0.19936585426330566,-0.06553402543067932
1712257398621439200,3.836439208984375,0.013124465942382812,-0.14507007598876953,-0.16724039614200592
1712257398631438000,3.84643798828125,0.17819976806640625,-0.0808267593383789,-0.05415421724319458
1712257398641436700,3.856436767578125,0.25063133239746094,-0.10251688957214355,-0.0024832487106323242
1712257398651435500,3.866435546875,0.1949291229248047,-0.13008451461791992,-0.03134429454803467
1712257398661434400,3.876434326171875,-0.11822223663330078,-0.11589241027832031,-0.1029115617275238
1712257398671433000,3.886432861328125,-0.313232421875,-0.05187821388244629,-0.05549806356430054
1712257398681431800,3.896431884765625,-0.3211050033569336,-0.09690618515014648,0.045912981033325195
1712257398691430700,3.9064306640625,-0.09681320190429688,-0.16106843948364258,0.12068864703178406
1712257398701429200,3.91642919921875,0.10066413879394531,-0.2629837989807129,0.18135160207748413
1712257398711428000,3.926427978515625,0.1832427978515625,-0.2777745723724365,0.17212408781051636
1712257398721426700,3.9364267578125,0.09869098663330078,-0.2550475597381592,0.037636518478393555
1712257398731425500,3.946425537109375,0.19001102447509766,-0.2635469436645508,-0.1331825852394104
1712257398741424400,3.95642431640625,0.47685718536376953,-0.22704720497131348,-0.12814506888389587
1712257398751423000,3.966423095703125,0.6820192337036133,-0.14171934127807617,0.003928065299987793
1712257398761421800,3.976421875,0.7055282592773438,-0.029190540313720703,0.19206368923187256
1712257398771420400,3.98642041015625,0.6383514404296875,0.06867837905883789,0.17700082063674927
1712257398781419300,3.996419189453125,0.4915304183959961,0.10570168495178223,-0.057333022356033325
1712257398791418000,4.006418212890625,0.5657119750976562,0.07262301445007324,-0.17035019397735596
1712257398801416700,4.016416748046875,0.7383890151977539,-0.062165260314941406,-0.1722038984298706
1712257398811415600,4.02641552734375,0.8734292984008789,-0.13174962997436523,-0.1496962606906891
1712257398821414400,4.036414306640625,0.8325672149658203,-0.14540910720825195,-0.1161237359046936
1712257398831413000,4.0464130859375,0.7169656753540039,-0.11535787582397461,-0.05171465873718262
1712257398841411800,4.056411865234375,0.5796165466308594,0.009691715240478516,0.02146458625793457
1712257398851410400,4.066410400390625,0.4834146499633789,0.062050819396972656,0.06879305839538574
1712257398861409300,4.0764091796875,0.4100799560546875,-0.019959211349487305,0.05375683307647705
1712257398871408000,4.086408203125,0.19858074188232422,-0.1004488468170166,0.05302834510803223
1712257398881406700,4.09640673828125,0.027851104736328125,-0.12724637985229492,0.0044828057289123535
1712257398891405600,4.106405517578125,-0.07603168487548828,-0.10601305961608887,-0.022135496139526367
1712257398901404200,4.116404052734375,-0.04835033416748047,-0.05063605308532715,-0.09962636232376099
1712257398911403000,4.126403076171875,-0.10447025299072266,-0.02826833724975586,-0.11226648092269897
1712257398921401600,4.136401611328125,-0.15815353393554688,0.006226062774658203,-0.049688249826431274
1712257398931400400,4.146400390625,-0.16626930236816406,-0.03584432601928711,-0.024584949016571045
1712257398941399000,4.15639892578125,-0.17410850524902344,-0.05956006050109863,-0.005565524101257324
1712257398951398000,4.16639794921875,-0.2103719711303711,-0.04382896423339844,-0.010289549827575684
1712257398961396500,4.176396484375,-0.20820331573486328,0.00008940696716308594,0.02594214677810669
1712257398971395300,4.186395263671875,-0.19901180267333984,0.018462181091308594,0.023141920566558838
1712257398981394000,4.196393798828125,-0.18531513214111328,0.03334856033325195,0.005194365978240967
1712257398991392800,4.206392822265625,-0.06660079956054688,0.01139521598815918,-0.0014862418174743652
1712257399001391600,4.2163916015625,-0.012805938720703125,-0.02372884750366211,0.048884570598602295
1712257399011390200,4.22639013671875,0.057663917541503906,-0.06835365295410156,0.028654396533966064
1712257399021389000,4.23638916015625,0.12324905395507812,-0.08894872665405273,0.04091066122055054
1712257399031387600,4.2463876953125,0.1457662582397461,-0.04038858413696289,0.041990816593170166
1712257399041386500,4.256386474609375,0.134857177734375,-0.03277420997619629,0.0018585920333862305
1712257399051385300,4.26638525390625,0.08812618255615234,-0.025627613067626953,0.036401331424713135
1712257399061384200,4.27638427734375,0.09419727325439453,-0.018688440322875977,0.05049985647201538
1712257399071382800,4.2863828125,0.1004343032836914,-0.03834986686706543,0.014938116073608398
1712257399081381600,4.296381591796875,-0.03214740753173828,-0.03434300422668457,0.05400645732879639
1712257399091380200,4.306380126953125,-0.03534698486328125,-0.035614967346191406,0.016977250576019287
1712257399101379000,4.316379150390625,-0.007396697998046875,-0.013128280639648438,-0.03400242328643799
1712257399111378000,4.3263779296875,-0.010457038879394531,-0.008133649826049805,-0.07425200939178467
1712257399121376500,4.33637646484375,-0.08276081085205078,0.017177343368530273,-0.05022364854812622
1712257399131375400,4.346375244140625,-0.1643362045288086,0.012482166290283203,0.005038738250732422
1712257399141374000,4.3563740234375,-0.3343925476074219,-0.01426553726196289,0.022315919399261475
1712257399151372800,4.366372802734375,-0.2940835952758789,-0.02301621437072754,-0.03652647137641907
1712257399161371600,4.37637158203125,-0.08202838897705078,-0.04105210304260254,-0.14830917119979858
1712257399171370500,4.38637060546875,0.06474781036376953,-0.07103824615478516,-0.14679595828056335
1712257399181369000,4.396369140625,0.07721328735351562,-0.09050273895263672,-0.05893808603286743
1712257399191368000,4.406367919921875,0.06341838836669922,-0.09556746482849121,-0.04432639479637146
1712257399201366500,4.416366455078125,-0.010254859924316406,-0.04781484603881836,-0.02269783616065979
1712257399211365400,4.426365478515625,0.02155303955078125,0.009158611297607422,-0.011397898197174072
1712257399221364200,4.4363642578125,0.10164642333984375,0.014575481414794922,-0.02327144145965576
1712257399231362800,4.44636279296875,0.10083770751953125,0.02280712127685547,-0.011679530143737793
1712257399241361700,4.456361572265625,0.06935501098632812,0.031264543533325195,0.018004775047302246
1712257399251360800,4.46636083984375,0.04544544219970703,-0.0004177093505859375,0.00551992654800415
1712257399261359600,4.476359619140625,-0.009522438049316406,-0.04687643051147461,-0.042281121015548706
1712257399271358500,4.4863583984375,-0.0049266815185546875,-0.04210400581359863,-0.033790647983551025
1712257399281357300,4.496357421875,0.025964736938476562,-0.03209233283996582,-0.02177029848098755
1712257399291356200,4.506356201171875,0.06142997741699219,-0.03533673286437988,-0.005902498960494995
1712257399301355000,4.51635498046875,0.06812763214111328,-0.05487346649169922,0.008504271507263184
1712257399311353900,4.526353759765625,0.04856395721435547,-0.05519890785217285,0.04035669565200806
1712257399321352700,4.536352783203125,0.048216819763183594,-0.04604530334472656,0.0571519136428833
1712257399331351600,4.5463515625,0.03989410400390625,-0.016802072525024414,0.04992753267288208
1712257399341350400,4.556350341796875,0.07227420806884766,-0.0021250247955322266,0.014935672283172607
1712257399351349200,4.566349365234375,0.10732078552246094,-0.019870996475219727,-0.00016105175018310547
1712257399361348000,4.57634814453125,0.06845855712890625,0.0014979839324951172,0.02190607786178589
1712257399371347000,4.586346923828125,-0.06807994842529297,-0.010517597198486328,0.025723814964294434
1712257399381345800,4.596345703125,-0.10851669311523438,-0.0072422027587890625,-0.07307213544845581
1712257399391344600,4.6063447265625,-0.13945484161376953,-0.00862884521484375,-0.09192255139350891
1712257399401343500,4.616343505859375,-0.11303329467773438,-0.02398061752319336,-0.0315975546836853
1712257399411342300,4.62634228515625,-0.06054973602294922,-0.021262645721435547,0.0017039477825164795
1712257399421341200,4.636341064453125,0.011036872863769531,-0.013208627700805664,-0.021589010953903198
1712257399431340000,4.646340087890625,-0.006020545959472656,-0.03836822509765625,-0.033220112323760986
1712257399441339000,4.6563388671875,-0.0039033889770507812,-0.010932445526123047,0.01017579436302185
1712257399451337700,4.666337646484375,-0.02318859100341797,-0.012720823287963867,0.048210710287094116
1712257399461336600,4.676336669921875,-0.051901817321777344,-0.005486488342285156,0.01891067624092102
1712257399471335400,4.68633544921875,-0.027975082397460938,-0.017388343811035156,-0.01700460910797119
1712257399481334300,4.696334228515625,0.0029897689819335938,-0.011979341506958008,-0.040695637464523315
1712257399491333000,4.7063330078125,0.021898269653320312,-0.020607709884643555,-0.023543864488601685
1712257399501332000,4.71633203125,0.03355121612548828,-0.014620304107666016,0.003441154956817627
1712257399511330800,4.726330810546875,0.023685455322265625,-0.0302276611328125,-0.008223623037338257
1712257399521329700,4.73632958984375,0.025854110717773438,-0.017348289489746094,-0.036781251430511475
1712257399531328500,4.74632861328125,0.011232376098632812,0.0051152706146240234,-0.007291227579116821
1712257399541327400,4.756327392578125,0.008669853210449219,0.044002532958984375,-0.018679916858673096
1712257399551326000,4.766325927734375,0.03264331817626953,0.034166574478149414,-0.02047628164291382
1712257399561324800,4.77632470703125,0.056720733642578125,0.033417463302612305,-0.0028738677501678467
1712257399571323400,4.786323486328125,-0.000461578369140625,0.0319974422454834,-0.0017814040184020996
1712257399581322200,4.796322265625,-0.023972511291503906,-0.0012812614440917969,0.014129459857940674
1712257399591320800,4.80632080078125,-0.0524139404296875,-0.009799957275390625,0.0003165900707244873
1712257399601319700,4.816319580078125,-0.06892967224121094,-0.015595674514770508,-0.02851817011833191
1712257399611318300,4.826318359375,-0.0998382568359375,-0.030870437622070312,-0.03331416845321655
1712257399621317000,4.836317138671875,-0.092529296875,-0.021801233291625977,-0.019045770168304443
1712257399631316000,4.84631591796875,-0.01833629608154297,-0.028754472732543945,0.006810188293457031
1712257399641314600,4.856314453125,0.01966381072998047,-0.0271451473236084,0.06999087333679199
1712257399651313400,4.8663134765625,0.06010246276855469,0.008087396621704102,0.07199689745903015
1712257399661312300,4.876312255859375,0.012059211730957031,0.018940210342407227,0.004572540521621704
1712257399671310800,4.886310791015625,-0.047675132751464844,-0.019728422164916992,-0.03684729337692261
1712257399681309700,4.896309814453125,-0.06420135498046875,-0.01842355728149414,-0.03158983588218689
1712257399691308500,4.90630859375,-0.061466217041015625,0.011226177215576172,-0.02179199457168579
1712257399701307100,4.91630712890625,-0.10415363311767578,-0.0073320865631103516,0.007252782583236694
1712257399711306000,4.926305908203125,-0.18751907348632812,0.0004432201385498047,-0.02156957983970642
1712257399721304600,4.9363046875,-0.1393585205078125,-0.04854726791381836,-0.019378483295440674
1712257399731303400,4.946303466796875,-0.043753623962402344,-0.052237749099731445,-0.021221429109573364
1712257399741302300,4.95630224609375,0.08731842041015625,-0.06834268569946289,0.00295981764793396
1712257399751300900,4.96630078125,0.18689918518066406,-0.06621599197387695,-0.0012502670288085938
1712257399761299500,4.976299560546875,0.19072818756103516,-0.00929713249206543,0.05052995681762695
1712257399771298300,4.98629833984375,0.0873565673828125,0.052475690841674805,0.08334976434707642
1712257399781297200,4.996297119140625,-0.02723217010498047,0.07762932777404785,0.08707773685455322
1712257399791296000,5.0062958984375,-0.069427490234375,0.0718848705291748,-0.0035100579261779785
1712257399801294600,5.016294677734375,-0.0827493667602539,0.05590963363647461,-0.010049521923065186
1712257399811293400,5.02629345703125,-0.09614276885986328,0.04745912551879883,-0.00478053092956543
1712257399821292300,5.036292236328125,-0.045032501220703125,0.013304471969604492,-0.006821632385253906
1712257399831291000,5.046290771484375,-0.013401985168457031,0.0069353580474853516,-0.004385530948638916
1712257399841289700,5.056289794921875,-0.04647350311279297,0.0030791759490966797,-0.006241440773010254
1712257399851288300,5.066288330078125,-0.08905887603759766,-0.010807514190673828,-0.021602988243103027
1712257399861287200,5.076287109375,-0.09807586669921875,-0.02271723747253418,-0.019247233867645264
1712257399871285800,5.08628564453125,-0.08087730407714844,0.004213094711303711,-0.024177640676498413
1712257399881284600,5.09628466796875,-0.12364959716796875,-0.006567478179931641,0.015851616859436035
1712257399891283500,5.106283447265625,-0.11145305633544922,-0.009674310684204102,-0.01867842674255371
1712257399901282000,5.116281982421875,-0.049160003662109375,-0.019268035888671875,0.011766970157623291
1712257399911281000,5.126281005859375,0.03924083709716797,-0.03728628158569336,0.050920963287353516
1712257399921279700,5.13627978515625,0.07710456848144531,-0.03255724906921387,0.0440366268157959
1712257399931278300,5.1462783203125,0.0935525894165039,-0.03319263458251953,0.027702808380126953
1712257399941277200,5.156277099609375,0.040579795837402344,-0.04117631912231445,0.042983174324035645
1712257399951275800,5.16627587890625,0.0019893646240234375,-0.025324106216430664,0.024895787239074707
1712257399961274600,5.176274658203125,0.004116058349609375,-0.026276588439941406,0.033119916915893555
1712257399971273200,5.186273193359375,0.0373382568359375,0.0040891170501708984,0.055397629737854004
1712257399981272000,5.19627197265625,0.037154197692871094,0.00046539306640625,0.020194172859191895
1712257399991270700,5.206270751953125,-0.013257980346679688,-0.0035448074340820312,0.009673237800598145
1712257400001269500,5.21626953125,-0.018105506896972656,-0.022330045700073242,-0.021964192390441895
1712257400011268000,5.22626806640625,-0.034915924072265625,-0.012526750564575195,-0.002858281135559082
1712257400021267000,5.236266845703125,-0.08752250671386719,0.003984212875366211,0.006559312343597412
1712257400031265800,5.246265869140625,-0.0825643539428711,-0.006293535232543945,-0.01743835210800171
1712257400041264400,5.256264404296875,-0.07288360595703125,0.01973128318786621,-0.017971575260162354
1712257400051263200,5.26626318359375,-0.025031089782714844,0.015339136123657227,-0.026234447956085205
1712257400061262000,5.276261962890625,0.0061016082763671875,-0.0035097599029541016,-0.01568204164505005
1712257400071260700,5.2862607421875,-0.005843162536621094,0.006216764450073242,0.009573698043823242
1712257400081259500,5.296259521484375,-0.05354595184326172,0.03903651237487793,0.0068988800048828125
1712257400091258000,5.306258056640625,-0.0963449478149414,0.04006075859069824,0.00019854307174682617
1712257400101257000,5.316257080078125,-0.09120559692382812,0.04790091514587402,-0.022613227367401123
1712257400111255800,5.326255859375,-0.021600723266601562,0.006084918975830078,-0.016153156757354736
1712257400121254400,5.33625439453125,0.0837087631225586,-0.008415937423706055,-0.0172768235206604
1712257400131253200,5.346253173828125,0.121826171875,0.004129171371459961,-0.006739795207977295
1712257400141251800,5.356251953125,0.05714225769042969,0.013652801513671875,-0.015376806259155273
1712257400151250700,5.366250732421875,-0.07197189331054688,0.010242462158203125,0.033660173416137695
1712257400161249500,5.37624951171875,-0.08120346069335938,0.01349496841430664,0.022088050842285156
1712257400171248400,5.386248291015625,-0.03054523468017578,0.02884387969970703,0.016555607318878174
1712257400181247000,5.3962470703125,-0.025394439697265625,0.011284112930297852,0.04700702428817749
1712257400191245800,5.406245849609375,-0.09689140319824219,0.013122797012329102,0.05307638645172119
1712257400201244400,5.416244384765625,-0.10372161865234375,-0.009137153625488281,0.05224686861038208
1712257400211243300,5.4262431640625,-0.11304855346679688,-0.021488189697265625,0.00875157117843628
1712257400221242000,5.4362421875,-0.10100555419921875,-0.03336596488952637,0.0023193359375
1712257400231240700,5.44624072265625,-0.07004928588867188,-0.03723716735839844,-0.024911344051361084
1712257400241239600,5.456239501953125,0.008540153503417969,-0.04029655456542969,-0.06306275725364685
1712257400251238100,5.466238037109375,0.07970523834228516,-0.052098989486694336,-0.10764452815055847
1712257400261237000,5.476237060546875,0.08135700225830078,-0.04716348648071289,-0.08614763617515564
1712257400271235800,5.48623583984375,0.035216331481933594,-0.05474281311035156,-0.06393271684646606
1712257400281234700,5.496234619140625,-0.022777557373046875,0.004282951354980469,-0.03958529233932495
1712257400291233500,5.506233642578125,-0.03023242950439453,0.02653050422668457,-0.001771390438079834
1712257400301232600,5.516232666015625,-0.008861541748046875,-0.003913164138793945,0.05835115909576416
1712257400311231500,5.5262314453125,0.02678680419921875,-0.014348268508911133,0.07573723793029785
1712257400321230600,5.536230712890625,0.03843402862548828,-0.03382420539855957,0.09192907810211182
1712257400331229400,5.5462294921875,0.06193065643310547,-0.017000198364257812,0.015256404876708984
1712257400341228500,5.556228515625,0.0662841796875,-0.029272794723510742,0.014196395874023438
1712257400351227600,5.5662275390625,0.013223648071289062,-0.018071889877319336,-0.004925072193145752
1712257400361226500,5.5762265625,-0.05176734924316406,-0.05505990982055664,-0.021126627922058105
1712257400371225600,5.5862255859375,-0.028250694274902344,-0.03423666954040527,-0.02056366205215454
1712257400381224700,5.596224609375,0.033539772033691406,-0.01080322265625,-0.015515625476837158
1712257400391223800,5.606223876953125,0.00685882568359375,0.009804725646972656,0.0012643933296203613
1712257400401223000,5.616222900390625,-0.021956443786621094,0.005354881286621094,0.006125211715698242
1712257400411221800,5.6262216796875,0.011618614196777344,0.005112648010253906,0.020522475242614746
1712257400421220900,5.636220947265625,-0.0026140213012695312,-0.007346630096435547,0.0058332085609436035
1712257400431220000,5.646219970703125,-0.021593093872070312,0.015947341918945312,-0.023271024227142334
1712257400441219000,5.656218994140625,-0.040534019470214844,0.0389559268951416,-0.023140311241149902
1712257400451218200,5.66621826171875,-0.0354156494140625,0.03258824348449707,-0.0032317042350769043
1712257400461217000,5.676217041015625,-0.06621265411376953,0.011904239654541016,-0.026571989059448242
1712257400471216000,5.686216064453125,-0.027647018432617188,-0.006218433380126953,-0.015856564044952393
1712257400481215200,5.69621533203125,-0.0012083053588867188,0.0003483295440673828,0.011261940002441406
1712257400491214300,5.70621435546875,-0.017968177795410156,-0.01652812957763672,0.0021735429763793945
1712257400501213400,5.71621337890625,0.010496139526367188,-0.015505790710449219,0.0265539288520813
1712257400511212300,5.72621240234375,0.04383563995361328,-0.021836280822753906,0.040536463260650635
1712257400521211400,5.73621142578125,0.031792640686035156,-0.04280805587768555,0.03459489345550537
1712257400531210500,5.74621044921875,-0.03534984588623047,-0.01571512222290039,0.04285305738449097
1712257400541209600,5.756209716796875,-0.0688018798828125,0.022655725479125977,0.02941453456878662
1712257400551208700,5.766208740234375,-0.07090568542480469,-0.00933694839477539,0.015941619873046875
1712257400561207600,5.77620751953125,-0.08738040924072266,0.008913278579711914,-0.026000380516052246
1712257400571206700,5.78620654296875,-0.046428680419921875,0.012771844863891602,-0.06241282820701599
1712257400581205500,5.79620556640625,-0.06294918060302734,0.004457235336303711,-0.05473664402961731
1712257400591204400,5.806204345703125,-0.110595703125,0.02707195281982422,-0.04861438274383545
1712257400601203500,5.816203369140625,-0.0767354965209961,0.041936635971069336,-0.029916107654571533
1712257400611202000,5.8262021484375,-0.02360248565673828,0.034795522689819336,-0.059313684701919556
1712257400621201000,5.836200927734375,-0.016016006469726562,0.0231015682220459,-0.057553499937057495
1712257400631199700,5.84619970703125,-0.032395362854003906,0.0019011497497558594,-0.046088725328445435
1712257400641198600,5.856198486328125,0.0038518905639648438,-0.007029294967651367,0.024835824966430664
1712257400651197200,5.866197265625,0.05449390411376953,0.005994081497192383,0.0815591812133789
1712257400661196000,5.876196044921875,0.040485382080078125,0.009749650955200195,0.06761157512664795
1712257400671194600,5.886194580078125,0.04317474365234375,-0.015017032623291016,0.02994316816329956
1712257400681193500,5.896193359375,0.0792856216430664,-0.037071943283081055,-0.004900753498077393
1712257400691192300,5.9061923828125,0.06974506378173828,-0.03712296485900879,0.006613373756408691
1712257400701191000,5.91619091796875,0.05050086975097656,-0.07274675369262695,0.016570687294006348
1712257400711189500,5.926189453125,0.024023056030273438,-0.08417153358459473,-0.007203936576843262
1712257400721188400,5.936188232421875,-0.009698867797851562,-0.04263925552368164,-0.0238722562789917
1712257400731187000,5.94618701171875,-0.11995315551757812,0.027231216430664062,-0.004473209381103516
1712257400741185800,5.956185791015625,-0.13904380798339844,0.03412055969238281,0.02435624599456787
1712257400751184600,5.9661845703125,-0.043175697326660156,-0.011614561080932617,0.023674964904785156
1712257400761183200,5.976183349609375,0.019028663635253906,-0.04932451248168945,0.01241368055343628
1712257400771182000,5.98618212890625,0.02115631103515625,-0.05016922950744629,0.03215527534484863
1712257400781181000,5.996180908203125,-0.024598121643066406,-0.012827396392822266,0.02843177318572998
1712257400791179500,6.006179443359375,-0.0941171646118164,0.028394699096679688,0.022960901260375977
1712257400801178400,6.016178466796875,-0.11789131164550781,0.03005385398864746,0.01827561855316162
1712257400811177200,6.02617724609375,-0.060219764709472656,0.02669048309326172,-0.010061204433441162
1712257400821175800,6.03617578125,-0.038475990295410156,0.025643348693847656,-0.028271734714508057
1712257400831174700,6.046174560546875,-0.038214683532714844,0.04819655418395996,-0.027048826217651367
1712257400841173200,6.05617333984375,-0.06900978088378906,0.06083559989929199,-0.030393660068511963
1712257400851172000,6.066172119140625,-0.0399017333984375,0.054141998291015625,-0.03860318660736084
1712257400861171000,6.0761708984375,-0.010753631591796875,0.05459880828857422,0.014880657196044922
1712257400871169500,6.08616943359375,0.04476165771484375,0.02641916275024414,0.04110974073410034
1712257400881168400,6.09616845703125,0.09542083740234375,0.027372360229492188,0.03571295738220215
1712257400891167000,6.1061669921875,0.12450504302978516,0.004621982574462891,-0.01330113410949707
1712257400901165800,6.116165771484375,0.0960702896118164,0.012995719909667969,-0.00627589225769043
1712257400911164700,6.12616455078125,0.03177642822265625,0.0018508434295654297,0.02768498659133911
1712257400921163300,6.136163330078125,0.005832672119140625,0.000102996826171875,0.011369466781616211
1712257400931162000,6.146162109375,-0.06087017059326172,-0.008515357971191406,0.009122729301452637
1712257400941161000,6.156160888671875,-0.04633045196533203,-0.00681304931640625,-0.007750093936920166
1712257400951159600,6.16615966796875,-0.046349525451660156,-0.013972997665405273,0.004448056221008301
1712257400961158400,6.176158447265625,-0.06071662902832031,0.0005383491516113281,0.013435721397399902
1712257400971157200,6.1861572265625,-0.041428565979003906,-0.014222860336303711,0.01754707098007202
1712257400981155800,6.19615576171875,-0.06522464752197266,-0.02435922622680664,-0.030553460121154785
1712257400991154400,6.206154541015625,-0.10821342468261719,-0.027484416961669922,-0.04853430390357971
1712257401001153300,6.2161533203125,-0.1129608154296875,-0.04954028129577637,-0.05428117513656616
1712257401011152100,6.226152099609375,-0.0916452407836914,-0.029879093170166016,-0.04513105750083923
1712257401021151000,6.23615087890625,-0.046486854553222656,-0.036095619201660156,-0.02898627519607544
1712257401031149600,6.246149658203125,-0.0037841796875,-0.05383467674255371,0.02226191759109497
1712257401041148400,6.2561484375,0.05073070526123047,-0.04915332794189453,0.034280598163604736
1712257401051147000,6.26614697265625,0.014290809631347656,-0.020617961883544922,0.017503857612609863
1712257401061145900,6.276145751953125,-0.021945953369140625,-0.009691953659057617,-0.004057884216308594
1712257401071144400,6.28614453125,-0.012471199035644531,-0.01884317398071289,-0.025601744651794434
1712257401081143300,6.296143310546875,-0.01737689971923828,-0.006548881530761719,-0.046444058418273926
1712257401091142000,6.306141845703125,-0.02231884002685547,-0.003854513168334961,-0.0473749041557312
1712257401101140700,6.316140625,0.015796661376953125,-0.010677814483642578,-0.052651405334472656
1712257401111139300,6.326139404296875,0.006020545959472656,-0.0007853507995605469,-0.03847041726112366
1712257401121138000,6.336137939453125,-0.006060600280761719,0.011139869689941406,-0.04347953200340271
1712257401131136800,6.34613671875,-0.008435249328613281,0.0249330997467041,-0.05811440944671631
1712257401141135600,6.356135498046875,0.015625953674316406,-0.00007390975952148438,-0.041267961263656616
1712257401151134200,6.36613427734375,0.058869361877441406,0.0012464523315429688,0.0014777779579162598
1712257401161133000,6.376133056640625,0.09019279479980469,0.014441967010498047,0.03889632225036621
1712257401171132000,6.3861318359375,0.047336578369140625,0.02032184600830078,-0.017235994338989258
1712257401181130500,6.396130615234375,0.04765605926513672,0.044831275939941406,-0.017430901527404785
1712257401191129300,6.40612939453125,0.04580974578857422,0.027612686157226562,-0.019677788019180298
1712257401201128000,6.4161279296875,-0.044475555419921875,-0.002269744873046875,-0.004813849925994873
1712257401211126800,6.426126708984375,-0.04839801788330078,0.03437304496765137,0.0021115541458129883
1712257401221125600,6.436125732421875,-0.11197566986083984,0.03687286376953125,0.015263855457305908
1712257401231124200,6.446124267578125,-0.16837692260742188,0.008466958999633789,-0.0035396218299865723
1712257401241123000,6.456123046875,-0.16726970672607422,0.016029834747314453,0.036475181579589844
1712257401251122000,6.466121826171875,-0.13042259216308594,-0.016122817993164062,0.03456699848175049
1712257401261120500,6.47612060546875,-0.13702011108398438,-0.025190114974975586,0.017841815948486328
1712257401271119400,6.486119384765625,-0.10070514678955078,-0.01692676544189453,-0.005213737487792969
1712257401281118200,6.4961181640625,-0.07892990112304688,0.010996103286743164,0.022958874702453613
1712257401291116800,6.50611669921875,-0.03790473937988281,0.019407033920288086,0.012678682804107666
1712257401301115600,6.51611572265625,0.03188514709472656,0.0444488525390625,-0.000032067298889160156
1712257401311114200,6.5261142578125,0.058617591857910156,0.050241708755493164,0.00850224494934082
1712257401321113000,6.536113037109375,0.07331371307373047,0.03720855712890625,0.014388978481292725
1712257401331112000,6.54611181640625,0.1023397445678711,0.02678680419921875,0.02952629327774048
1712257401341110500,6.556110595703125,0.09779548645019531,0.0477144718170166,0.01586306095123291
1712257401351109400,6.566109375,0.08142280578613281,0.05353546142578125,0.010065317153930664
1712257401361108200,6.576108154296875,0.0172882080078125,0.027652502059936523,0.01660841703414917
1712257401371106800,6.58610693359375,0.013146400451660156,0.005925178527832031,-0.03158578276634216
1712257401381105700,6.596105712890625,-0.06779193878173828,-0.02247166633605957,-0.03328365087509155
1712257401391104500,6.6061044921875,-0.1106414794921875,-0.05017423629760742,0.00183945894241333
1712257401401103600,6.616103515625,-0.1201162338256836,-0.03176689147949219,0.058372557163238525
1712257401411102500,6.6261025390625,-0.12955379486083984,-0.05167889595031738,0.03288686275482178
1712257401421101300,6.636101318359375,-0.08398628234863281,-0.054451704025268555,-0.0027123093605041504
1712257401431100200,6.64610009765625,-0.09367942810058594,-0.0946817398071289,-0.0026988983154296875
1712257401441099000,6.65609912109375,-0.1156167984008789,-0.07630443572998047,-0.012431144714355469
1712257401451097900,6.666097900390625,-0.05625343322753906,-0.06949567794799805,-0.014866650104522705
1712257401461096700,6.6760966796875,-0.023400306701660156,-0.0643312931060791,-0.027061671018600464
1712257401471095600,6.686095458984375,0.0069370269775390625,-0.06593036651611328,-0.019726097583770752
1712257401481094400,6.696094482421875,0.05865287780761719,-0.0572812557220459,-0.03143346309661865
1712257401491093200,6.70609326171875,0.10315799713134766,-0.005402565002441406,-0.031208336353302002
1712257401501092000,6.716092041015625,0.1072092056274414,0.02628946304321289,-0.009370088577270508
1712257401511091000,6.726091064453125,0.06853294372558594,0.027693510055541992,-0.004093468189239502
1712257401521089800,6.73608984375,0.0062656402587890625,0.06587505340576172,0.020730018615722656
1712257401531088600,6.746088623046875,-0.03652763366699219,0.07157492637634277,-0.018907010555267334
1712257401541087500,6.75608740234375,-0.0050334930419921875,0.05281257629394531,0.002433955669403076
1712257401551086300,6.76608642578125,-0.040569305419921875,0.09592866897583008,-0.048880696296691895
1712257401561085200,6.776085205078125,0.02971172332763672,0.06786918640136719,-0.08426558971405029
1712257401571084000,6.786083984375,-0.06514835357666016,0.05172443389892578,-0.03670680522918701
1712257401581083000,6.796082763671875,-0.08335685729980469,0.021136045455932617,-0.010939627885818481
1712257401591081700,6.806081787109375,-0.06812191009521484,-0.0017056465148925781,0.006495356559753418
1712257401601080600,6.81608056640625,-0.03634929656982422,0.038861989974975586,0.010823249816894531
1712257401611079400,6.826079345703125,-0.0046634674072265625,0.06317353248596191,0.026383161544799805
1712257401621078300,6.836078369140625,-0.00406646728515625,0.039408206939697266,0.01824265718460083
1712257401631077000,6.8460771484375,-0.048900604248046875,0.008142471313476562,0.03917115926742554
1712257401641076000,6.856075927734375,-0.021940231323242188,-0.006234645843505859,0.03622329235076904
1712257401651074800,6.86607470703125,-0.04540061950683594,-0.01048731803894043,0.02144455909729004
1712257401661073700,6.87607373046875,-0.04740142822265625,0.002302408218383789,0.004593193531036377
1712257401671072500,6.886072509765625,-0.04230022430419922,-0.008580207824707031,0.009587109088897705
1712257401681071400,6.8960712890625,-0.037212371826171875,-0.0168914794921875,-0.009957849979400635
1712257401691070200,6.9060703125,0.010852813720703125,-0.03186988830566406,-0.05118182301521301
1712257401701068800,6.91606884765625,0.0037050247192382812,-0.039142608642578125,-0.005928635597229004
1712257401711067400,6.9260673828125,-0.04896068572998047,-0.003251314163208008,0.00838923454284668
1712257401721066200,6.936066162109375,-0.036830902099609375,0.012960672378540039,0.03667569160461426
1712257401731064800,6.94606494140625,-0.02482891082763672,0.005922555923461914,0.01867729425430298
1712257401741063700,6.956063720703125,-0.01052093505859375,-0.03181624412536621,0.007557392120361328
1712257401751062300,6.966062255859375,0.05141162872314453,-0.07828736305236816,0.00934535264968872
1712257401761061000,6.97606103515625,0.041278839111328125,-0.09020733833312988,0.03716379404067993
1712257401771060000,6.98606005859375,0.033392906188964844,-0.06325364112854004,0.03642618656158447
1712257401781058600,6.99605859375,0.011219024658203125,-0.03659629821777344,0.002068758010864258
1712257401791057400,7.006057373046875,-0.039642333984375,-0.0028808116912841797,-0.008565008640289307
1712257401801056300,7.01605615234375,-0.09033870697021484,-0.0033435821533203125,-0.004858970642089844
1712257401811054800,7.026054931640625,-0.08349132537841797,-0.006540775299072266,-0.03702104091644287
1712257401821053700,7.0360537109375,-0.05976581573486328,-0.022327661514282227,-0.03263726830482483
1712257401831052300,7.04605224609375,-0.06479930877685547,-0.026181936264038086,-0.03714197874069214
1712257401841051100,7.056051025390625,-0.07212543487548828,0.00782918930053711,-0.012771189212799072
1712257401851049700,7.0660498046875,-0.06257915496826172,0.0390012264251709,-0.02919483184814453
1712257401861048600,7.076048583984375,-0.057743072509765625,0.04582476615905762,-0.042804867029190063
1712257401871047400,7.08604736328125,0.016504287719726562,0.02399444580078125,-0.018032371997833252
1712257401881046000,7.0960458984375,0.04035377502441406,0.0026929378509521484,-0.007842719554901123
1712257401891044900,7.106044921875,0.09522438049316406,-0.03735160827636719,0.02154165506362915
1712257401901043700,7.116043701171875,0.09495067596435547,-0.0435185432434082,0.01242607831954956
1712257401911042300,7.126042236328125,0.06593990325927734,-0.03534078598022461,0.015468478202819824
1712257401921041200,7.136041259765625,0.032235145568847656,-0.0011703968048095703,-0.01039278507232666
1712257401931040000,7.1460400390625,-0.037194252014160156,0.015383720397949219,-0.014323115348815918
1712257401941038600,7.15603857421875,-0.08249759674072266,0.024001598358154297,-0.006240546703338623
1712257401951037400,7.166037353515625,-0.0989694595336914,0.039644718170166016,-0.001735985279083252
1712257401961036000,7.1760361328125,-0.07950878143310547,0.0217592716217041,-0.009481370449066162
1712257401971035000,7.186034912109375,-0.028898239135742188,0.010998249053955078,-0.012603998184204102
1712257401981033700,7.19603369140625,-0.03820610046386719,0.026811599731445312,0.00586092472076416
1712257401991032300,7.2060322265625,-0.04744720458984375,0.011209726333618164,0.0004932880401611328
1712257402001031200,7.21603125,-0.03025054931640625,0.014325141906738281,-0.004758596420288086
1712257402011030000,7.226030029296875,-0.06329822540283203,0.005308866500854492,-0.005148649215698242
1712257402021028600,7.236028564453125,-0.0915231704711914,-0.006185293197631836,0.00620877742767334
1712257402031027500,7.24602734375,-0.0648031234741211,-0.010078668594360352,-0.008409678936004639
1712257402041026300,7.2560263671875,-0.03583717346191406,-0.04210019111633301,-0.018234610557556152
1712257402051025000,7.26602490234375,-0.019121170043945312,-0.013118982315063477,0.04367607831954956
1712257402061023700,7.276023681640625,-0.00005245208740234375,-0.050989627838134766,-0.021372050046920776
1712257402071022300,7.286022216796875,0.08348941802978516,-0.04038596153259277,-0.01171797513961792
1712257402081021200,7.296021240234375,0.044750213623046875,-0.03119659423828125,0.015845179557800293
1712257402091019800,7.306019775390625,-0.008453369140625,-0.012035369873046875,0.014694452285766602
1712257402101018600,7.3160185546875,-0.02802276611328125,-0.007712125778198242,0.06387507915496826
1712257402111017200,7.326017333984375,0.0028085708618164062,0.0034177303314208984,0.03115999698638916
1712257402121016000,7.33601611328125,-0.007002830505371094,-0.00006198883056640625,-0.03271406888961792
1712257402131014700,7.3460146484375,-0.05023765563964844,-0.016238689422607422,-0.016048848628997803
1712257402141013500,7.356013427734375,-0.05023479461669922,-0.018771886825561523,0.022829830646514893
1712257402151012000,7.36601220703125,-0.0024995803833007812,-0.015677452087402344,0.010479450225830078
1712257402161011000,7.376010986328125,-0.009911537170410156,-0.02895951271057129,0.012188315391540527
1712257402171009800,7.386009765625,-0.09154319763183594,-0.035043954849243164,-0.034092068672180176
1712257402181008400,7.39600830078125,-0.039058685302734375,-0.08473348617553711,0.007425844669342041
1712257402191007200,7.40600732421875,-0.013124465942382812,-0.01122593879699707,-0.05021056532859802
1712257402201005800,7.416005859375,-0.09729957580566406,0.05963134765625,-0.054502248764038086
1712257402211004700,7.426004638671875,-0.14522838592529297,0.03546285629272461,-0.021579384803771973
1712257402221003500,7.43600341796875,-0.07575035095214844,0.030003786087036133,-0.012202560901641846
1712257402231002000,7.446002197265625,-0.011077880859375,0.027300357818603516,-0.02326264977455139
1712257402241001000,7.4560009765625,0.051120758056640625,0.010538816452026367,-0.027071118354797363
1712257402250999600,7.46599951171875,0.08697891235351562,0.020177125930786133,0.000012814998626708984
1712257402260998400,7.475998291015625,0.08215618133544922,0.010688304901123047,0.03374820947647095
1712257402270997200,7.485997314453125,0.06783199310302734,0.003441333770751953,0.03808242082595825
1712257402280995800,7.495995849609375,0.07039165496826172,0.002997875213623047,0.046622276306152344
1712257402290994700,7.50599462890625,0.07774066925048828,0.016997098922729492,0.028438806533813477
1712257402300993500,7.51599365234375,0.03236103057861328,0.0048639774322509766,0.024728059768676758
1712257402310992100,7.5259921875,0.01807403564453125,-0.011983871459960938,-0.009838759899139404
1712257402320991000,7.535990966796875,0.010894775390625,-0.011881351470947266,-0.0031758546829223633
1712257402330989800,7.54598974609375,-0.05841827392578125,-0.017110347747802734,-0.0034155845642089844
1712257402340988400,7.555988525390625,-0.09658527374267578,0.0063555240631103516,-0.03259164094924927
1712257402350987300,7.5659873046875,-0.12018299102783203,-0.023779869079589844,-0.037397295236587524
1712257402360985900,7.57598583984375,-0.09117317199707031,0.006145954132080078,-0.03710624575614929
1712257402370984700,7.585984619140625,-0.11963844299316406,-0.004655361175537109,-0.012519538402557373
1712257402380983300,7.5959833984375,-0.07388019561767578,-0.013010263442993164,0.007009923458099365
1712257402390982100,7.605982177734375,-0.0641317367553711,-0.008896827697753906,0.01650160551071167
1712257402400981000,7.61598095703125,-0.03772449493408203,-0.004324197769165039,0.028157949447631836
1712257402410979800,7.625979736328125,0.012552261352539062,-0.018461942672729492,0.015222370624542236
1712257402420978700,7.635978759765625,0.06981277465820312,-0.012595653533935547,-0.014660775661468506
1712257402430977500,7.6459775390625,0.09352302551269531,-0.030676603317260742,0.01111745834350586
1712257402440976400,7.655976318359375,0.08833599090576172,-0.04345440864562988,0.02084559202194214
1712257402450975500,7.6659755859375,0.07830047607421875,-0.05358409881591797,0.028136253356933594
1712257402460974300,7.675974365234375,0.053809165954589844,-0.06573796272277832,0.037840187549591064
1712257402470973400,7.685973388671875,0.012524604797363281,-0.029712438583374023,0.0061383843421936035
1712257402480972500,7.69597265625,-0.033476829528808594,-0.015487909317016602,0.024548768997192383
1712257402490971400,7.705971435546875,-0.055472373962402344,0.00812840461730957,0.016283035278320312
1712257402500970500,7.715970458984375,-0.022248268127441406,0.03597521781921387,0.0006206631660461426
1712257402510969600,7.725969482421875,-0.03921794891357422,0.0036902427673339844,-0.005813777446746826
1712257402520968700,7.73596875,-0.07301139831542969,-0.0309140682220459,-0.009048640727996826
1712257402530967800,7.7459677734375,-0.08043861389160156,-0.008310317993164062,-0.01886540651321411
1712257402540967000,7.755966796875,-0.11895561218261719,0.004499673843383789,-0.03315865993499756
1712257402550965800,7.7659658203125,-0.12860679626464844,0.014298677444458008,-0.013630688190460205
1712257402560964900,7.77596484375,-0.07833194732666016,-0.0001327991485595703,0.003480195999145508
1712257402570964000,7.7859638671875,0.01980113983154297,-0.000009775161743164062,0.005938529968261719
1712257402580963000,7.795963134765625,0.031646728515625,-0.0018167495727539062,0.017581045627593994
1712257402590962000,7.8059619140625,0.0075092315673828125,-0.01288914680480957,0.005189299583435059
1712257402600961000,7.8159609375,0.01923370361328125,-0.018988370895385742,0.009667575359344482
1712257402610960100,7.825960205078125,0.03808116912841797,-0.010464191436767578,0.023705005645751953
1712257402620959200,7.835959228515625,0.033214569091796875,-0.00747990608215332,0.029681503772735596
1712257402630958300,7.845958251953125,-0.007422447204589844,0.018807411193847656,-0.014359652996063232
1712257402640957200,7.855957275390625,-0.02159404754638672,0.04192066192626953,0.0025353431701660156
1712257402650956300,7.865956298828125,-0.030837059020996094,0.03102254867553711,0.011875927448272705
1712257402660955400,7.875955322265625,-0.0639638900756836,0.034230709075927734,-0.028946757316589355
1712257402670954500,7.88595458984375,-0.046875953674316406,0.023159503936767578,-0.04747465252876282
1712257402680953600,7.89595361328125,-0.0058994293212890625,0.01468205451965332,-0.029960572719573975
1712257402690952700,7.90595263671875,0.006259918212890625,0.0018000602722167969,0.004165053367614746
1712257402700951600,7.91595166015625,-0.0030622482299804688,0.00540614128112793,-0.01200324296951294
1712257402710950700,7.92595068359375,-0.01958942413330078,0.02818894386291504,-0.025445103645324707
1712257402720949500,7.935949462890625,-0.045571327209472656,0.019229888916015625,-0.02880859375
1712257402730948400,7.9459482421875,-0.08594989776611328,0.029552459716796875,0.0061307549476623535
1712257402740947200,7.955947265625,-0.04007911682128906,-0.027212858200073242,-0.026729881763458252
1712257402750946000,7.965946044921875,0.007923126220703125,-0.05172228813171387,0.014381825923919678
1712257402760945000,7.97594482421875,0.0148468017578125,-0.07206225395202637,0.04002273082733154
1712257402770943700,7.98594384765625,0.021608352661132812,-0.06536293029785156,0.01765972375869751
1712257402780942600,7.995942626953125,-0.010027885437011719,-0.06074690818786621,-0.011679470539093018
