time,seconds_elapsed,z,y,x
1712257592139991800,0.04499169921875,0,0,0
1712257592149992000,0.054991943359375,-0.017988204956054688,0.029145479202270508,0.03300762176513672
1712257592159992600,0.06499267578125,0.05046653747558594,0.08939623832702637,-0.00886690616607666
1712257592169994000,0.074993896484375,0.169921875,0.1401233673095703,-0.09249216318130493
1712257592179996000,0.084995849609375,0.30502986907958984,0.16367435455322266,-0.13961398601531982
1712257592189998800,0.094998779296875,0.2685070037841797,-0.23278307914733887,0.6345133781433105
1712257592200002800,0.1050029296875,-0.7603998184204102,-0.1695420742034912,0.13626307249069214
1712257592210007600,0.115007568359375,-0.04396533966064453,0.6751794815063477,0.15468186140060425
1712257592220013300,0.125013427734375,-0.9038372039794922,0.12948322296142578,0.02217245101928711
1712257592230020000,0.13502001953125,-0.5726022720336914,0.08814144134521484,-0.08678954839706421
1712257592240028000,0.14502783203125,-0.3511314392089844,-0.0645451545715332,-0.17061468958854675
1712257592250036200,0.1550361328125,-0.3448047637939453,-0.2805914878845215,-0.34516769647598267
1712257592260045300,0.16504541015625,-0.11546993255615234,-0.2292466163635254,-0.4496855139732361
1712257592270054700,0.1750546875,0.1349639892578125,-0.10695934295654297,-0.31521692872047424
1712257592280064500,0.185064453125,0.2804269790649414,-0.07873106002807617,-0.18798069655895233
1712257592290074400,0.195074462890625,0.06389999389648438,-0.20162439346313477,-0.25142934918403625
1712257592300083700,0.205083740234375,0.31542301177978516,-0.21409964561462402,-0.07188571989536285
1712257592310089500,0.21508935546875,0.9590387344360352,-0.08716344833374023,-0.18062976002693176
1712257592320095200,0.22509521484375,1.782414436340332,0.39010000228881836,0.10504037141799927
1712257592330101000,0.23510107421875,2.306220054626465,0.3441441059112549,0.13677668571472168
1712257592340106500,0.2451064453125,2.3652029037475586,0.034673213958740234,-0.2882600426673889
1712257592350112300,0.2551123046875,1.9652986526489258,-0.4101243019104004,-0.652326762676239
1712257592360118000,0.265117919921875,1.0643291473388672,-0.48383641242980957,-0.7526815533638
1712257592370123800,0.275123779296875,0.12069320678710938,-0.2711482048034668,-0.5773714780807495
1712257592380129500,0.285129638671875,-0.8521804809570312,-0.24396109580993652,-0.350555956363678
1712257592390135300,0.29513525390625,-1.2689266204833984,-0.23387575149536133,-0.15303504467010498
1712257592400141000,0.30514111328125,-1.294163703918457,-0.12529468536376953,-0.0996149331331253
1712257592410146800,0.315146728515625,-1.116353988647461,0.04857039451599121,-0.11518526077270508
1712257592420152300,0.32515234375,-0.7408781051635742,0.1355149745941162,-0.06011413410305977
1712257592430158000,0.335157958984375,-0.598362922668457,-0.006693124771118164,-0.19103071093559265
1712257592440163800,0.345163818359375,-0.3228893280029297,-0.031167268753051758,-0.09539882838726044
1712257592450169600,0.355169677734375,-0.14469337463378906,-0.13814496994018555,-0.06301425397396088
1712257592460175400,0.36517529296875,0.07913780212402344,-0.10812067985534668,0.06478090584278107
1712257592470181000,0.37518115234375,0.5056877136230469,-0.056420087814331055,-0.01711559295654297
1712257592480187000,0.385186767578125,0.5991077423095703,-0.023616313934326172,-0.26931294798851013
1712257592490192600,0.395192626953125,0.3638124465942383,-0.022213459014892578,-0.261921226978302
1712257592500198400,0.405198486328125,0.12102127075195312,0.026245594024658203,-0.08428505063056946
1712257592510204000,0.415203857421875,-0.12902545928955078,0.1239173412322998,0.009779095649719238
1712257592520209700,0.425209716796875,-0.21872901916503906,0.13936185836791992,0.15889450907707214
1712257592530215400,0.43521533203125,-0.3205270767211914,0.019275665283203125,0.04235532879829407
1712257592540221200,0.44522119140625,-0.25701332092285156,-0.0690770149230957,-0.07639114558696747
1712257592550227000,0.45522705078125,-0.04154491424560547,-0.08866572380065918,-0.1994294971227646
1712257592560232700,0.465232666015625,0.14041519165039062,-0.12096405029296875,-0.17926359176635742
1712257592570238500,0.475238525390625,0.24788284301757812,-0.17077279090881348,-0.10339659452438354
1712257592580244200,0.485244140625,0.32961559295654297,-0.1210942268371582,-0.04310047626495361
1712257592590249700,0.495249755859375,0.2173309326171875,-0.0623166561126709,0.024088174104690552
1712257592600255500,0.50525537109375,0.15838241577148438,0.010856389999389648,-0.027295783162117004
1712257592610261200,0.51526123046875,0.2877073287963867,0.10736966133117676,-0.04158520698547363
1712257592620267000,0.52526708984375,0.2595205307006836,0.21657371520996094,0.08427456021308899
1712257592630272800,0.535272705078125,0.17597675323486328,0.2618560791015625,0.19168847799301147
1712257592640278500,0.545278564453125,0.06175804138183594,0.22035861015319824,0.2092733085155487
1712257592650284300,0.5552841796875,0.08171463012695312,0.12200331687927246,0.20367330312728882
1712257592660290000,0.5652900390625,0.06945323944091797,0.03683066368103027,0.1972980797290802
1712257592670295600,0.575295654296875,0.20433425903320312,0.011585235595703125,0.13202008605003357
1712257592680301300,0.58530126953125,0.20115375518798828,-0.047136545181274414,0.037532031536102295
1712257592690307000,0.59530712890625,0.03333854675292969,-0.0427250862121582,-0.16486641764640808
1712257592700312800,0.605312744140625,-0.1362285614013672,-0.05661201477050781,-0.2908328175544739
1712257592710318600,0.615318603515625,-0.15697669982910156,-0.1689927577972412,-0.03325778245925903
1712257592720324400,0.625324462890625,-0.14878559112548828,-0.10611462593078613,-0.0407017320394516
1712257592730330000,0.635330078125,-0.05996131896972656,-0.04130983352661133,-0.09057824313640594
1712257592740335900,0.6453359375,0.10421466827392578,0.00035691261291503906,-0.06086912751197815
1712257592750341400,0.65534130859375,0.0786581039428711,0.0998234748840332,0.0030078887939453125
1712257592760347100,0.66534716796875,-0.08299732208251953,0.16932892799377441,0.10261845588684082
1712257592770353000,0.675352783203125,-0.3373270034790039,0.14574432373046875,0.12462189793586731
1712257592780358700,0.685358642578125,-0.6038055419921875,0.056077003479003906,0.07586273550987244
1712257592790364400,0.695364501953125,-0.7460308074951172,-0.03200173377990723,0.05894431471824646
1712257592800370200,0.7053701171875,-0.6574325561523438,-0.04788017272949219,0.11176276206970215
1712257592810376000,0.7153759765625,-0.3263835906982422,-0.0509648323059082,0.028705358505249023
1712257592820381700,0.725381591796875,-0.028911590576171875,0.036422014236450195,-0.0418340265750885
1712257592830387500,0.735387451171875,0.1470327377319336,0.11121773719787598,0.05226784944534302
1712257592840393000,0.74539306640625,0.21289634704589844,0.17134737968444824,0.09160450100898743
1712257592850398700,0.755398681640625,0.18030261993408203,0.22674822807312012,0.04356679320335388
1712257592860404500,0.765404541015625,0.1448526382446289,0.19333314895629883,0.016773253679275513
1712257592870410200,0.77541015625,-0.011687278747558594,0.10697627067565918,0.04710736870765686
1712257592880416000,0.785416015625,-0.10476970672607422,0.06528472900390625,0.10029056668281555
1712257592890421800,0.795421875,-0.1646270751953125,0.0697946548461914,0.009143263101577759
1712257592900427500,0.805427490234375,-0.15891742706298828,-0.007192373275756836,-0.06908750534057617
1712257592910433300,0.815433349609375,-0.0459442138671875,-0.05698204040527344,-0.04475697875022888
1712257592920438800,0.825438720703125,-0.020257949829101562,-0.03850412368774414,-0.03513503074645996
1712257592930444500,0.835444580078125,0.02828502655029297,0.0036666393280029297,0.02769911289215088
1712257592940450300,0.8454501953125,0.24118995666503906,0.09132981300354004,0.024206161499023438
1712257592950456000,0.8554560546875,0.3761568069458008,0.09517192840576172,0.00821542739868164
1712257592960461800,0.8654619140625,0.39245128631591797,0.11455273628234863,-0.0049034953117370605
1712257592970467600,0.875467529296875,0.35802650451660156,0.12089228630065918,0.012486577033996582
1712257592980473300,0.885473388671875,0.30185890197753906,0.09116482734680176,0.031422704458236694
1712257592990479000,0.89547900390625,0.2427377700805664,0.05987548828125,0.05668294429779053
1712257593000484600,0.905484619140625,0.14230060577392578,0.07123351097106934,0.08722683787345886
1712257593010490400,0.915490478515625,0.005435943603515625,0.11171412467956543,0.027307868003845215
1712257593020496100,0.92549609375,-0.08262348175048828,0.11059379577636719,-0.014341145753860474
1712257593030502000,0.935501953125,-0.2216510772705078,0.1158285140991211,0.013704359531402588
1712257593040507600,0.945507568359375,-0.25531578063964844,0.0941464900970459,-0.035990118980407715
1712257593050513400,0.955513427734375,-0.1661052703857422,0.04974055290222168,-0.06360551714897156
1712257593060519200,0.965519287109375,-0.0876016616821289,0.024618148803710938,-0.12072397768497467
1712257593070525000,0.97552490234375,-0.05694293975830078,-0.029560565948486328,-0.16299501061439514
1712257593080530700,0.98553076171875,-0.045009613037109375,-0.0843198299407959,-0.0718793272972107
1712257593090536200,0.9955361328125,-0.08945846557617188,-0.05424141883850098,-0.03286987543106079
1712257593100542000,1.0055419921875,-0.03894233703613281,-0.03443551063537598,-0.029506415128707886
1712257593110547700,1.015547607421875,-0.04622173309326172,0.0330049991607666,-0.01513737440109253
1712257593120553500,1.025553466796875,-0.016364097595214844,0.08209633827209473,-0.025957107543945312
1712257593130559200,1.035559326171875,0.06903743743896484,0.09391474723815918,0.03208187222480774
1712257593140565000,1.04556494140625,0.14786911010742188,0.12556743621826172,0.016124248504638672
1712257593150570800,1.05557080078125,0.20161819458007812,0.1007378101348877,-0.10360811650753021
1712257593160576500,1.065576416015625,0.2122936248779297,0.038075923919677734,-0.07393243908882141
1712257593170582000,1.07558203125,0.19449329376220703,0.0562901496887207,-0.03635132312774658
1712257593180587800,1.085587890625,0.21914291381835938,0.05555081367492676,-0.028535962104797363
1712257593190593500,1.095593505859375,0.29059886932373047,0.08268928527832031,0.008716017007827759
1712257593200599300,1.105599365234375,0.2907400131225586,0.12245368957519531,-0.026233166456222534
1712257593210605000,1.11560498046875,0.13126850128173828,0.09938335418701172,-0.01965901255607605
1712257593220610800,1.12561083984375,-0.016243934631347656,0.12423276901245117,-0.0013279616832733154
1712257593230616600,1.135616455078125,-0.08651447296142578,0.1123957633972168,0.033650368452072144
1712257593240622300,1.145622314453125,-0.03367328643798828,0.09247064590454102,0.05329987406730652
1712257593250627800,1.1556279296875,-0.005429267883300781,0.06386804580688477,-0.0076133012771606445
1712257593260633600,1.165633544921875,-0.1331787109375,0.012514591217041016,0.0030757486820220947
1712257593270639400,1.175639404296875,-0.3019084930419922,0.010716915130615234,-0.05185036361217499
1712257593280645000,1.18564501953125,-0.33736705780029297,0.007279396057128906,-0.05304749310016632
1712257593290651000,1.19565087890625,-0.23208332061767578,0.0016582012176513672,0.03111901879310608
1712257593300656600,1.20565673828125,-0.13833904266357422,0.020414352416992188,0.05420506000518799
1712257593310662400,1.215662353515625,-0.08359432220458984,0.024165630340576172,-0.0822380781173706
1712257593320668200,1.225668212890625,-0.02449798583984375,-0.0015213489532470703,-0.10494105517864227
1712257593330674000,1.235673828125,-0.03641319274902344,0.0519258975982666,-0.04263722896575928
1712257593340679400,1.245679443359375,-0.05208301544189453,0.0980372428894043,-0.004510015249252319
1712257593350685200,1.255685302734375,-0.137237548828125,0.10848331451416016,0.0036908388137817383
1712257593360691000,1.26569091796875,-0.23918437957763672,0.027940034866333008,-0.03633579611778259
1712257593370696700,1.27569677734375,-0.3396329879760742,-0.0319368839263916,-0.07142527401447296
1712257593380702500,1.285702392578125,-0.3639993667602539,-0.06516385078430176,-0.011553153395652771
1712257593390708200,1.295708251953125,-0.3372163772583008,0.012845039367675781,-0.008799687027931213
1712257593400714000,1.3057138671875,-0.23632526397705078,0.06320571899414062,-0.05474889278411865
1712257593410719700,1.3157197265625,-0.19401168823242188,0.08080053329467773,0.001850515604019165
1712257593420725500,1.3257255859375,-0.1810169219970703,0.08960127830505371,0.009456038475036621
1712257593430731300,1.335731201171875,-0.13090896606445312,0.09438252449035645,0.02122703194618225
1712257593440737000,1.345737060546875,-0.06759166717529297,0.07572484016418457,0.028591960668563843
1712257593450742800,1.35574267578125,0.02801799774169922,0.05172300338745117,0.03233909606933594
1712257593460748500,1.36574853515625,0.07087993621826172,0.06889557838439941,0.04761439561843872
1712257593470754300,1.37575439453125,0.10416889190673828,0.08897876739501953,0.11326277256011963
1712257593480760300,1.38576025390625,0.09507179260253906,0.0271761417388916,0.04036173224449158
1712257593490766000,1.39576611328125,0.10560035705566406,-0.011432647705078125,-0.12215086072683334
1712257593500771800,1.405771728515625,0.0976858139038086,-0.031569480895996094,-0.08911754190921783
1712257593510777600,1.415777587890625,0.12349510192871094,-0.015111207962036133,-0.034145936369895935
1712257593520783400,1.425783447265625,0.1587057113647461,0.014065265655517578,-0.029120102524757385
1712257593530789000,1.4357890625,0.20768165588378906,0.051509857177734375,-0.06412775814533234
1712257593540795000,1.445794921875,0.19472122192382812,0.03154778480529785,-0.08302628248929977
1712257593550800600,1.455800537109375,0.10682964324951172,0.12456583976745605,-0.02276521921157837
1712257593560806400,1.465806396484375,0.011027336120605469,0.12185287475585938,0.0020392239093780518
1712257593570812200,1.475812255859375,-0.026685714721679688,0.07219266891479492,-0.026599526405334473
1712257593580818000,1.48581787109375,0.04916858673095703,0.009527921676635742,-0.052724555134773254
1712257593590823700,1.49582373046875,0.2469310760498047,-0.04427981376647949,-0.09088288247585297
1712257593600829700,1.50582958984375,0.38639259338378906,-0.0065042972564697266,-0.0440705269575119
1712257593610835500,1.51583544921875,0.27534961700439453,0.017907142639160156,0.02305912971496582
1712257593620841200,1.52584130859375,0.11980628967285156,-0.0022881031036376953,0.007105663418769836
1712257593630847000,1.535846923828125,-0.08958148956298828,0.01541280746459961,-0.027666643261909485
1712257593640852700,1.545852783203125,-0.2156047821044922,0.06634640693664551,-0.08828438073396683
1712257593650858500,1.5558583984375,-0.2973470687866211,0.0746300220489502,-0.1496591866016388
1712257593660864300,1.5658642578125,-0.15198612213134766,-0.0814216136932373,-0.3360193967819214
1712257593670870000,1.5758701171875,0.1416330337524414,-0.21142363548278809,-0.4698495864868164
1712257593680875800,1.585875732421875,0.12481212615966797,-0.1050560474395752,-0.034528948366642
1712257593690881500,1.595881591796875,-0.16086959838867188,-0.027173757553100586,0.15395459532737732
1712257593700887300,1.60588720703125,-0.24083328247070312,0.09508299827575684,0.16082815825939178
1712257593710893000,1.61589306640625,-0.22640514373779297,0.18021059036254883,0.21016621589660645
1712257593720898800,1.62589892578125,-0.23165416717529297,0.1995387077331543,0.13660889863967896
1712257593730904600,1.635904541015625,-0.1855945587158203,0.20116114616394043,0.078565314412117
1712257593740910300,1.645910400390625,-0.027655601501464844,0.17540407180786133,0.04233316332101822
1712257593750916000,1.655916015625,0.18979167938232422,0.17162060737609863,-0.05341055989265442
1712257593760921900,1.665921875,0.1745929718017578,0.07937097549438477,-0.03671431541442871
1712257593770927600,1.675927734375,0.08530998229980469,0.10882329940795898,0.046073801815509796
1712257593780933400,1.685933349609375,0.002620697021484375,0.11339187622070312,0.08904525637626648
1712257593790939000,1.69593896484375,-0.17783069610595703,0.005535125732421875,0.10160095989704132
1712257593800944600,1.705944580078125,-0.3426933288574219,0.025384902954101562,0.13260628283023834
1712257593810950400,1.715950439453125,-0.34180164337158203,0.0018711090087890625,0.0682561993598938
1712257593820956200,1.7259560546875,-0.29476070404052734,-0.10863804817199707,0.0518893301486969
1712257593830962000,1.7359619140625,-0.20656394958496094,-0.12229466438293457,0.04438883066177368
1712257593840967700,1.7459677734375,-0.1391439437866211,0.03001260757446289,0.007286339998245239
1712257593850973400,1.755973388671875,-0.08244609832763672,0.1330714225769043,-0.05650793015956879
1712257593860979200,1.765979248046875,-0.01703166961669922,0.1349630355834961,-0.029084719717502594
1712257593870985000,1.77598486328125,0.015040397644042969,0.09283208847045898,-0.006072774529457092
1712257593880990500,1.785990478515625,-0.056488990783691406,0.11608600616455078,0.023242756724357605
1712257593890996200,1.795996337890625,-0.1506357192993164,0.14421463012695312,0.10537149012088776
1712257593901002000,1.806001953125,-0.16853046417236328,0.07448530197143555,0.08219718933105469
1712257593911007700,1.8160078125,-0.08802127838134766,0.021924495697021484,0.008169114589691162
1712257593921013500,1.826013427734375,0.0659799575805664,-0.004894733428955078,-0.042056016623973846
1712257593931019300,1.836019287109375,0.17987537384033203,0.02505946159362793,-0.04729228466749191
1712257593941025000,1.84602490234375,0.1983661651611328,0.04360246658325195,-0.04741261154413223
1712257593951030800,1.85603076171875,0.25046443939208984,0.05016684532165527,-0.00229606032371521
1712257593961036300,1.866036376953125,0.25583648681640625,0.07734131813049316,0.03399236500263214
1712257593971042000,1.8760419921875,0.12580394744873047,0.03069782257080078,-0.01672545075416565
1712257593981047800,1.8860478515625,-0.09086990356445312,-0.0024590492248535156,-0.04447051137685776
1712257593991053600,1.896053466796875,-0.2147665023803711,0.026805877685546875,-0.014650493860244751
1712257594001059300,1.906059326171875,-0.22928524017333984,0.08129143714904785,0.016309767961502075
1712257594011065000,1.916065185546875,-0.20717716217041016,0.0717766284942627,-0.07406547665596008
1712257594021070800,1.92607080078125,-0.172515869140625,-0.010172843933105469,-0.16840697824954987
1712257594031076600,1.93607666015625,-0.15784645080566406,-0.08001852035522461,-0.05893707275390625
1712257594041082000,1.94608203125,-0.23349952697753906,-0.302701473236084,0.07266600430011749
1712257594051088000,1.956087890625,-0.07262516021728516,0.08618521690368652,0.12054657936096191
1712257594061093600,1.96609375,0.10508346557617188,0.1893022060394287,-0.1161191463470459
1712257594071099400,1.976099365234375,0.1483469009399414,0.12508153915405273,-0.00003388524055480957
1712257594081105200,1.986105224609375,0.23871135711669922,0.1733391284942627,-0.04286128282546997
1712257594091111000,1.99611083984375,0.24385833740234375,0.11022567749023438,-0.021197974681854248
1712257594101116700,2.00611669921875,0.29230594635009766,0.012824296951293945,0.06342743337154388
1712257594111122400,2.016122314453125,0.20413684844970703,0.0659177303314209,0.059799015522003174
1712257594121128000,2.0261279296875,0.014133453369140625,0.09374570846557617,-0.03379127383232117
1712257594131133700,2.0361337890625,-0.14485645294189453,0.07010126113891602,-0.04751858115196228
1712257594141139500,2.046139404296875,-0.28786563873291016,0.039247751235961914,0.018988311290740967
1712257594151145200,2.056145263671875,-0.34476375579833984,0.01126241683959961,0.05559685826301575
1712257594161151000,2.06615087890625,-0.369537353515625,0.06790709495544434,-0.008989885449409485
1712257594171156700,2.07615673828125,-0.23642539978027344,0.09674310684204102,-0.17007414996623993
1712257594181162500,2.08616259765625,-0.14940738677978516,0.10975074768066406,-0.1883213222026825
1712257594191168300,2.096168212890625,0.05313301086425781,0.03487825393676758,-0.15080563724040985
1712257594201174000,2.106174072265625,0.2010183334350586,-0.025643587112426758,-0.14862605929374695
1712257594211179500,2.116179443359375,0.2438955307006836,-0.07336950302124023,-0.07098355144262314
1712257594221185300,2.126185302734375,0.14555644989013672,0.0050373077392578125,-0.025413423776626587
1712257594231191000,2.13619091796875,0.2144002914428711,-0.07489800453186035,-0.40969038009643555
1712257594241196800,2.14619677734375,-0.07866287231445312,0.1675281524658203,0.3216533064842224
1712257594251202600,2.15620263671875,-0.32146358489990234,-0.09418320655822754,0.16178078949451447
1712257594261208300,2.166208251953125,-0.015002250671386719,-0.07147932052612305,-0.12556171417236328
1712257594271214000,2.176214111328125,0.06077861785888672,0.07260537147521973,-0.15999139845371246
1712257594281219800,2.1862197265625,-0.024585723876953125,0.04921364784240723,-0.003917604684829712
1712257594291225300,2.196225341796875,-0.06639480590820312,-0.0674140453338623,0.03355050086975098
1712257594301231000,2.206231201171875,-0.017889976501464844,-0.10707831382751465,-0.014051586389541626
1712257594311236900,2.21623681640625,0.025794029235839844,-0.03443193435668945,-0.02213887870311737
1712257594321242600,2.22624267578125,0.10256385803222656,0.06817221641540527,-0.13159695267677307
1712257594331248400,2.236248291015625,0.24063491821289062,0.09535503387451172,-0.23619982600212097
1712257594341254100,2.246254150390625,0.2931852340698242,0.17498087882995605,0.11756017804145813
1712257594351260000,2.256260009765625,0.25077247619628906,0.08352017402648926,-0.0791165828704834
1712257594361265700,2.266265625,-0.026311874389648438,0.012046575546264648,0.04190507531166077
1712257594371271200,2.276271240234375,-0.2139730453491211,0.030627727508544922,0.11507681012153625
1712257594381277000,2.28627685546875,-0.3566703796386719,0.054741859436035156,0.09953445196151733
1712257594391282700,2.29628271484375,-0.2720603942871094,0.04358553886413574,0.030253589153289795
1712257594401288400,2.306288330078125,-0.10465335845947266,0.053150177001953125,-0.027713894844055176
1712257594411294200,2.316294189453125,-0.048157691955566406,0.05275702476501465,0.032894402742385864
1712257594421300000,2.326300048828125,0.017333030700683594,0.06484675407409668,0.17226681113243103
1712257594431305700,2.3363056640625,0.13861370086669922,0.037848472595214844,0.11951729655265808
1712257594441311500,2.3463115234375,0.20628738403320312,0.05310559272766113,0.06839528679847717
1712257594451317200,2.356317138671875,0.15522003173828125,0.05827045440673828,0.05746927857398987
1712257594461322800,2.36632275390625,0.13314533233642578,0.07277369499206543,0.09168905019760132
1712257594471328500,2.37632861328125,0.07376384735107422,0.03988385200500488,0.09790793061256409
1712257594481334300,2.386334228515625,0.04874134063720703,0.06813335418701172,-0.012609899044036865
1712257594491340000,2.396340087890625,-0.05522918701171875,0.052382469177246094,-0.11194604635238647
1712257594501345800,2.406345703125,-0.21392059326171875,0.05108070373535156,-0.008844703435897827
1712257594511351600,2.4163515625,-0.09244060516357422,0.07413625717163086,-0.021437495946884155
1712257594521357300,2.426357421875,0.05133056640625,0.13328814506530762,-0.16697333753108978
1712257594531363000,2.436363037109375,0.023773193359375,0.12910771369934082,-0.07181403040885925
1712257594541368600,2.44636865234375,-0.03622913360595703,0.129319429397583,-0.04143393039703369
1712257594551374300,2.456374267578125,-0.08568191528320312,0.13378477096557617,-0.05239942669868469
1712257594561380000,2.466380126953125,-0.1672067642211914,0.1003108024597168,-0.09075921773910522
1712257594571385900,2.4763857421875,-0.18616580963134766,0.039309024810791016,-0.11061733961105347
1712257594581391600,2.4863916015625,-0.1627521514892578,-0.03850150108337402,-0.07529348134994507
1712257594591397400,2.4963974609375,-0.12108325958251953,-0.04856443405151367,-0.05491185188293457
1712257594601403100,2.506403076171875,-0.051705360412597656,-0.05883383750915527,-0.1285848617553711
1712257594611409000,2.516408935546875,0.06381511688232422,-0.1263113021850586,-0.22626632452011108
1712257594621414400,2.526414306640625,0.20587158203125,-0.056874990463256836,-0.1272304356098175
1712257594631420200,2.536420166015625,0.20917606353759766,-0.01785588264465332,0.012386679649353027
1712257594641426000,2.546426025390625,0.24988746643066406,0.048439741134643555,0.1226954460144043
1712257594651431700,2.556431640625,0.2520284652709961,0.09985136985778809,0.08658188581466675
1712257594661437400,2.5664375,0.23543739318847656,0.07956480979919434,0.06440967321395874
1712257594671443200,2.576443115234375,0.17250347137451172,0.06817793846130371,0.0031358003616333008
1712257594681449000,2.586448974609375,0.15383338928222656,0.06502604484558105,-0.08975893259048462
1712257594691454700,2.596454833984375,0.11284255981445312,0.003805398941040039,-0.0576956570148468
1712257594701460500,2.60646044921875,0.07324695587158203,-0.011018514633178711,0.1014450192451477
1712257594711466200,2.61646630859375,-0.0031557083129882812,0.015872955322265625,0.14837729930877686
1712257594721472000,2.626471923828125,-0.08348464965820312,0.0901486873626709,0.028183817863464355
1712257594731477800,2.636477783203125,-0.14449214935302734,0.07076811790466309,-0.05985289812088013
1712257594741483500,2.6464833984375,-0.1013936996459961,0.00558018684387207,-0.0317378044128418
1712257594751489500,2.656489501953125,-0.15843772888183594,-0.029378890991210938,0.07412731647491455
1712257594761495300,2.666495361328125,-0.15857601165771484,-0.0064013004302978516,0.054354190826416016
1712257594771501000,2.6765009765625,-0.1922321319580078,0.007883548736572266,0.03657287359237671
1712257594781506800,2.6865068359375,-0.11750221252441406,0.013631343841552734,-0.06089314818382263
1712257594791512600,2.6965126953125,-0.0724477767944336,0.08597922325134277,-0.11694270372390747
1712257594801518300,2.706518310546875,-0.08467864990234375,0.12004709243774414,-0.11963918805122375
1712257594811524000,2.716524169921875,-0.0021686553955078125,0.10612916946411133,-0.10751515626907349
1712257594821529900,2.72652978515625,0.10811328887939453,0.06243586540222168,-0.027374058961868286
1712257594831535600,2.73653564453125,0.13254451751708984,0.03652453422546387,0.0191974937915802
1712257594841541400,2.746541259765625,0.17568206787109375,0.057211875915527344,0.001511216163635254
1712257594851547100,2.756547119140625,0.21839237213134766,0.08146190643310547,-0.00988680124282837
1712257594861553000,2.766552978515625,0.15245628356933594,0.062128305435180664,-0.02113509178161621
1712257594871559000,2.776558837890625,0.1681842803955078,0.07033443450927734,-0.10852447152137756
1712257594881564700,2.786564697265625,0.2836799621582031,-0.02288198471069336,-0.012151330709457397
1712257594891570400,2.7965703125,0.2713890075683594,-0.04155135154724121,0.14918893575668335
1712257594901576200,2.806576171875,0.04780006408691406,-0.09341692924499512,0.21621650457382202
1712257594911582000,2.81658203125,-0.059449195861816406,-0.08698201179504395,0.04216206073760986
1712257594921587700,2.826587646484375,-0.13724327087402344,-0.046002864837646484,-0.05164974927902222
1712257594931593500,2.836593505859375,-0.19110584259033203,-0.03185844421386719,0.05364787578582764
1712257594941599200,2.84659912109375,-0.13168048858642578,0.030243873596191406,0.11253172159194946
1712257594951605000,2.85660498046875,-0.10193538665771484,0.11050701141357422,0.09074574708938599
1712257594961610800,2.86661083984375,-0.077606201171875,0.1421794891357422,0.05571931600570679
1712257594971616500,2.876616455078125,-0.03470039367675781,0.08321952819824219,0.019392192363739014
1712257594981622300,2.886622314453125,-0.08147430419921875,0.08060216903686523,0.040998995304107666
1712257594991628300,2.896628173828125,-0.24497604370117188,0.08710908889770508,0.024057716131210327
1712257595001634000,2.906634033203125,-0.4015998840332031,0.08066415786743164,-0.05874276161193848
1712257595011639800,2.916639892578125,-0.5144720077514648,0.06275224685668945,-0.06812801957130432
1712257595021645600,2.9266455078125,-0.4860715866088867,-0.049970149993896484,-0.08895224332809448
1712257595031651300,2.9366513671875,-0.2611570358276367,-0.10295438766479492,-0.07802870869636536
1712257595041657000,2.946656982421875,-0.14370250701904297,-0.08873176574707031,-0.006903797388076782
1712257595051662600,2.95666259765625,-0.04225921630859375,-0.027397632598876953,-0.02537667751312256
1712257595061668400,2.96666845703125,-0.003528594970703125,0.0660395622253418,-0.07256251573562622
1712257595071674000,2.976674072265625,0.0018033981323242188,0.14359807968139648,-0.08843505382537842
1712257595081680000,2.986679931640625,0.0025691986083984375,0.18644189834594727,-0.09024050831794739
1712257595091685600,2.996685546875,-0.09556961059570312,0.1580495834350586,-0.10692545771598816
1712257595101691400,3.00669140625,-0.037265777587890625,0.14562749862670898,-0.04939603805541992
1712257595111697200,3.016697265625,-0.02697467803955078,0.04846668243408203,0.0693628191947937
1712257595121703000,3.026702880859375,-0.06905078887939453,-0.046723365783691406,0.09713327884674072
1712257595131708400,3.03670849609375,0.01611614227294922,-0.11576986312866211,0.08942154049873352
1712257595141714200,3.046714111328125,0.39646434783935547,-0.18785643577575684,0.09625881910324097
1712257595151720000,3.056719970703125,1.0460138320922852,-0.1312699317932129,0.023430943489074707
1712257595161725700,3.0667255859375,0.49639415740966797,0.026042938232421875,0.16737917065620422
1712257595171731500,3.0767314453125,-0.014652252197265625,0.1161041259765625,0.11639335751533508
1712257595181737200,3.0867373046875,-0.41417694091796875,0.17748308181762695,-0.091239333152771
1712257595191743000,3.096742919921875,-0.5643177032470703,0.19571399688720703,-0.19140510261058807
1712257595201748700,3.106748779296875,-0.5358285903930664,0.14473485946655273,-0.13997496664524078
1712257595211754200,3.116754150390625,-0.39720726013183594,0.05750131607055664,-0.12004286050796509
1712257595221760000,3.126760009765625,-0.23423385620117188,0.012873172760009766,-0.10652324557304382
1712257595231765800,3.136765869140625,-0.11264228820800781,-0.009932994842529297,-0.061566293239593506
1712257595241771500,3.146771484375,-0.05004119873046875,0.034691810607910156,-0.0374910831451416
1712257595251777300,3.15677734375,0.039585113525390625,0.05532407760620117,-0.04057154059410095
1712257595261783000,3.166782958984375,0.0904226303100586,0.05106401443481445,0.02027881145477295
1712257595271788800,3.176788818359375,0.1315326690673828,0.012668609619140625,0.07677766680717468
1712257595281794600,3.186794677734375,0.1161041259765625,-0.007683753967285156,0.07650521397590637
1712257595291800300,3.19680029296875,0.03088665008544922,-0.005664348602294922,0.027371585369110107
1712257595301805800,3.206805908203125,-0.05741596221923828,-0.046801090240478516,-0.08330869674682617
1712257595311811600,3.2168115234375,-0.012691497802734375,-0.09607553482055664,-0.08796414732933044
1712257595321817300,3.2268173828125,0.07296466827392578,-0.10036468505859375,-0.03403252363204956
1712257595331823000,3.236822998046875,0.0906057357788086,-0.03224802017211914,-0.07767975330352783
1712257595341828900,3.246828857421875,0.02732372283935547,0.07827138900756836,-0.043539732694625854
1712257595351834600,3.256834716796875,0.06374168395996094,0.14487266540527344,-0.0022377073764801025
1712257595361840400,3.26684033203125,0.30273914337158203,0.15265846252441406,-0.040834516286849976
1712257595371846100,3.27684619140625,0.4356498718261719,0.1295304298400879,-0.021416038274765015
1712257595381851600,3.2868515625,0.4599170684814453,0.11704301834106445,0.0797203779220581
1712257595391857400,3.296857421875,0.4716634750366211,0.10483646392822266,0.11104169487953186
1712257595401863200,3.30686328125,0.3249502182006836,0.055529117584228516,0.07482078671455383
1712257595411869000,3.316868896484375,0.0922250747680664,-0.00013399124145507812,0.07039991021156311
1712257595421874700,3.326874755859375,-0.05637359619140625,0.005952358245849609,-0.004970520734786987
1712257595431880400,3.33688037109375,-0.1884784698486328,0.03587198257446289,-0.09004342555999756
1712257595441886200,3.34688623046875,-0.28586387634277344,0.042801856994628906,-0.08021998405456543
1712257595451892000,3.35689208984375,-0.2786731719970703,0.0509343147277832,-0.02249106764793396
1712257595461897500,3.3668974609375,-0.23940086364746094,0.05100870132446289,-0.02502259612083435
1712257595471903200,3.3769033203125,-0.15436744689941406,0.03356790542602539,-0.0635356605052948
1712257595481909000,3.386908935546875,-0.15631389617919922,0.032149314880371094,-0.0006870627403259277
1712257595491914800,3.396914794921875,-0.15422439575195312,0.027441978454589844,0.03458520770072937
1712257595501920500,3.40692041015625,-0.1665945053100586,-0.004904270172119141,0.05199849605560303
1712257595511926300,3.41692626953125,-0.2167987823486328,-0.03129291534423828,0.12237036228179932
1712257595521932000,3.42693212890625,-0.2667713165283203,-0.008892536163330078,0.15482646226882935
1712257595531937800,3.436937744140625,-0.3263874053955078,0.015344619750976562,0.11299175024032593
1712257595541943600,3.446943603515625,-0.3065023422241211,0.014284133911132812,0.044043004512786865
1712257595551949000,3.456948974609375,-0.2602958679199219,-0.0018448829650878906,-0.003131568431854248
1712257595561954800,3.466954833984375,-0.1268148422241211,-0.02363300323486328,-0.12948213517665863
1712257595571960600,3.476960693359375,-0.07651615142822266,0.04671001434326172,-0.14856421947479248
1712257595581966300,3.48696630859375,-0.10788536071777344,0.08947420120239258,-0.13448917865753174
1712257595591972000,3.49697216796875,-0.06871414184570312,0.07159757614135742,-0.10353679955005646
1712257595601977900,3.506977783203125,0.04503345489501953,0.07779455184936523,-0.03778676688671112
1712257595611983600,3.516983642578125,0.2044973373413086,0.031082630157470703,-0.020584985613822937
1712257595621989400,3.5269892578125,0.32491111755371094,0.0013666152954101562,0.008193597197532654
1712257595631995000,3.536994873046875,0.3699960708618164,0.0006916522979736328,0.044543176889419556
1712257595642000600,3.547000732421875,0.3082246780395508,0.027990341186523438,0.09035901725292206
1712257595652006400,3.55700634765625,0.1646108627319336,-0.015435457229614258,0.08445993065834045
1712257595662012200,3.56701220703125,0.0010395050048828125,-0.07501816749572754,0.08395466208457947
1712257595672018000,3.577017822265625,-0.19716358184814453,-0.03538942337036133,0.11085768043994904
1712257595682023700,3.587023681640625,-0.1101064682006836,0.07092046737670898,0.11606954038143158
1712257595692029400,3.597029541015625,0.2960224151611328,0.0431056022644043,0.05058014392852783
1712257595702035200,3.60703515625,0.027823448181152344,-0.043436527252197266,0.13169445097446442
1712257595712040700,3.617040771484375,0.07081127166748047,0.020340919494628906,0.12720081210136414
1712257595722046500,3.62704638671875,0.07092571258544922,0.030794143676757812,-0.04728172719478607
1712257595732052200,3.63705224609375,0.038313865661621094,0.05945396423339844,-0.17784878611564636
1712257595742058000,3.64705810546875,0.058349609375,0.0823054313659668,-0.2605588436126709
1712257595752063700,3.657063720703125,0.2201986312866211,0.07929134368896484,-0.2492910623550415
1712257595762069500,3.667069580078125,0.35738277435302734,0.025655746459960938,-0.12027294933795929
1712257595772075300,3.6770751953125,0.45157623291015625,0.002084493637084961,-0.06371060758829117
1712257595782081000,3.6870810546875,0.4516124725341797,0.03180289268493652,-0.04878934472799301
1712257595792086800,3.697086669921875,0.3446645736694336,0.07692813873291016,0.033178091049194336
1712257595802092500,3.707092529296875,0.12238407135009766,0.07299566268920898,0.04324932396411896
1712257595812098300,3.717098388671875,-0.1340494155883789,0.046161651611328125,0.08122901618480682
1712257595822104000,3.72710400390625,-0.3118715286254883,0.03627824783325195,-0.00920318067073822
1712257595832109800,3.73710986328125,-0.3655719757080078,0.06719064712524414,-0.06693442165851593
1712257595842115600,3.747115478515625,-0.34412384033203125,0.03425121307373047,-0.0707804411649704
1712257595852121300,3.757121337890625,-0.20585155487060547,-0.02975177764892578,-0.12053010612726212
1712257595862127000,3.767127197265625,-0.11695003509521484,-0.026644229888916016,-0.11139783263206482
1712257595872133000,3.777133056640625,-0.10010242462158203,0.004681110382080078,-0.05291333794593811
1712257595882139000,3.787138916015625,-0.15436935424804688,-0.0016107559204101562,-0.0771448016166687
1712257595892144600,3.79714453125,-0.2602701187133789,-0.03436279296875,-0.10160157084465027
1712257595902150400,3.807150390625,-0.38930797576904297,0.021091938018798828,-0.09614494442939758
1712257595912156200,3.81715625,-0.5462236404418945,0.1075277328491211,-0.03990189731121063
1712257595922162000,3.827161865234375,-0.6181201934814453,0.0843815803527832,0.004695340991020203
1712257595932167700,3.837167724609375,-0.5452556610107422,0.028989315032958984,0.06929682195186615
1712257595942173400,3.84717333984375,-0.3625144958496094,-0.011970996856689453,0.12367536127567291
1712257595952179200,3.85717919921875,-0.11815738677978516,-0.040049076080322266,0.05377037823200226
1712257595962185000,3.86718505859375,0.1972370147705078,-0.0010728836059570312,-0.08782855421304703
1712257595972190700,3.877190673828125,0.5032463073730469,0.012816905975341797,-0.15711365640163422
1712257595982196500,3.887196533203125,0.6311969757080078,-0.027808666229248047,-0.07759989798069
1712257595992202500,3.897202392578125,0.6602783203125,-0.06781387329101562,0.06463409960269928
1712257596002208300,3.907208251953125,0.5926036834716797,-0.1320335865020752,0.1448701173067093
1712257596012214000,3.917214111328125,0.4954977035522461,-0.17253851890563965,0.10249900817871094
1712257596022219800,3.9272197265625,0.48207664489746094,-0.26874279975891113,0.11530253291130066
1712257596032225500,3.9372255859375,0.48001956939697266,-0.3576674461364746,0.156036376953125
1712257596042231300,3.947231201171875,0.39914608001708984,-0.3064444065093994,0.257556289434433
1712257596052237000,3.957237060546875,-0.08099174499511719,-0.14689946174621582,0.6303489208221436
1712257596062242800,3.967242919921875,-0.42923450469970703,0.13918590545654297,0.8701686859130859
1712257596072248600,3.97724853515625,-0.18730640411376953,0.20292091369628906,-0.040338918566703796
1712257596082254300,3.98725439453125,0.40613460540771484,0.11963367462158203,-0.9320468902587891
1712257596092260000,3.997260009765625,0.8993215560913086,0.08710145950317383,-1.2949596643447876
1712257596102265900,4.007265869140625,1.3239259719848633,0.19499492645263672,-1.201375961303711
1712257596112272000,4.01727197265625,1.787008285522461,0.4028310775756836,-0.6146275997161865
1712257596122277600,4.027277587890625,2.2137088775634766,0.4218597412109375,-0.44249263405799866
1712257596132283400,4.037283447265625,2.515165328979492,0.5303468704223633,-0.2501523196697235
1712257596142289200,4.0472890625,2.77022647857666,0.6285610198974609,0.06426205486059189
1712257596152295000,4.057294921875,3.0769615173339844,0.5359759330749512,0.5365285277366638
1712257596162300700,4.06730078125,3.0310239791870117,0.3950214385986328,0.9215928316116333
1712257596172306400,4.077306396484375,2.6850366592407227,0.07193851470947266,1.0980803966522217
1712257596182312200,4.087312255859375,2.0472240447998047,-0.12999773025512695,0.772213339805603
1712257596192317700,4.097317626953125,1.6318683624267578,-0.15209007263183594,0.41995102167129517
1712257596202323500,4.107323486328125,1.8445310592651367,-0.3755455017089844,0.11823898553848267
1712257596212329200,4.1173291015625,2.2948780059814453,-0.635857105255127,0.28552594780921936
1712257596222335000,4.1273349609375,2.469271659851074,-0.7819418907165527,0.5754059553146362
1712257596232340700,4.1373408203125,2.577023506164551,-0.8491454124450684,0.5316457748413086
1712257596242346500,4.147346435546875,2.251911163330078,-1.0463275909423828,0.34978246688842773
1712257596252352300,4.157352294921875,1.722996711730957,-1.3733782768249512,-0.04396861791610718
1712257596262358000,4.16735791015625,0.8302569389343262,-1.542219638824463,-0.07101476192474365
1712257596272363500,4.177363525390625,-0.3649301528930664,-1.6393723487854004,0.24730956554412842
1712257596282369300,4.187369384765625,-1.3881335258483887,-0.8149051666259766,1.4825925827026367
1712257596292375000,4.197375,-1.484267234802246,0.9181866645812988,2.912750244140625
1712257596302380800,4.207380859375,-1.9338889122009277,-0.3586583137512207,1.8741952180862427
1712257596312386600,4.217386474609375,-1.8972225189208984,-1.004936695098877,0.7763914465904236
1712257596322392300,4.227392333984375,-1.950697898864746,-1.2750258445739746,0.052227020263671875
1712257596332398000,4.237398193359375,-2.0619497299194336,-1.5903568267822266,-0.19216328859329224
1712257596342403800,4.24740380859375,-1.9347662925720215,-1.6701068878173828,-0.5246425271034241
1712257596352409300,4.257409423828125,-1.734975814819336,-1.570246696472168,-0.6825592517852783
1712257596362415000,4.2674150390625,-2.748053550720215,-1.418027400970459,-1.0859348773956299
1712257596372420900,4.2774208984375,-3.1257333755493164,-1.3387818336486816,-1.3929073810577393
1712257596382426600,4.287426513671875,-2.8076000213623047,-1.3150625228881836,-1.5513591766357422
1712257596392432400,4.297432373046875,-2.047236204147339,-1.0843982696533203,-1.5315189361572266
1712257596402438100,4.307438232421875,-1.3650829792022705,-0.9953861236572266,-1.1506736278533936
1712257596412444000,4.31744384765625,-0.8895597457885742,-0.9503512382507324,-0.6901804208755493
1712257596422449700,4.32744970703125,-0.6154570579528809,-0.7511687278747559,-0.4695166051387787
1712257596432455400,4.337455322265625,-0.4915599822998047,-0.5479097366333008,-0.23804397881031036
1712257596442461000,4.3474609375,-0.19781208038330078,-0.2781972885131836,-0.07980747520923615
1712257596452466700,4.357466796875,0.562993049621582,0.07611942291259766,-0.24453186988830566
1712257596462472400,4.367472412109375,1.1238327026367188,0.02148723602294922,-0.16484619677066803
1712257596472478200,4.377478271484375,1.5788617134094238,-0.0314788818359375,-0.3455623388290405
1712257596482484000,4.38748388671875,1.9661164283752441,-0.18478679656982422,-0.3940283954143524
1712257596492489700,4.39748974609375,1.9875760078430176,-0.34807300567626953,-0.3266092836856842
1712257596502495500,4.40749560546875,1.552408218383789,-0.36722278594970703,-0.2599499821662903
1712257596512501200,4.417501220703125,1.04990553855896,-0.38353824615478516,-0.1898970901966095
1712257596522506800,4.4275068359375,0.566497802734375,-0.27987098693847656,-0.16585437953472137
1712257596532512500,4.437512451171875,0.3743729591369629,-0.0685110092163086,-0.144851416349411
1712257596542518300,4.447518310546875,0.21852517127990723,-0.06913375854492188,-0.3212239146232605
1712257596552524000,4.45752392578125,-0.1673734188079834,-0.3085746765136719,-0.4819450378417969
1712257596562529800,4.46752978515625,-0.5480539798736572,-0.47460269927978516,-0.6662821769714355
1712257596572535600,4.47753564453125,-1.2923226356506348,-0.6760663986206055,-0.020582884550094604
1712257596582541300,4.487541259765625,-2.4356870651245117,0.034079551696777344,0.6707991361618042
1712257596592547000,4.497547119140625,-2.8281543254852295,0.527003288269043,0.8840944766998291
1712257596602552600,4.507552490234375,-2.7711663246154785,0.08525466918945312,1.1468822956085205
1712257596612558300,4.517558349609375,-2.711589813232422,-0.27320289611816406,1.132077932357788
1712257596622564000,4.527564208984375,-2.4236361980438232,-0.29152774810791016,0.7440182566642761
1712257596632569900,4.53756982421875,-1.8277558088302612,-0.2677602767944336,0.537533164024353
1712257596642575600,4.54757568359375,-0.9940768480300903,-0.046097755432128906,0.8735450506210327
1712257596652581400,4.557581298828125,-0.3255293369293213,-0.06841850280761719,0.9309356808662415
1712257596662587100,4.567587158203125,0.014561891555786133,-0.010080337524414062,0.7935710549354553
1712257596672593000,4.577593017578125,0.30554378032684326,0.0043621063232421875,0.4931444525718689
1712257596682598700,4.5875986328125,0.7175027132034302,0.027161598205566406,0.1803424209356308
1712257596692604200,4.597604248046875,0.899541974067688,-0.3719778060913086,-0.1890735924243927
1712257596702610000,4.60760986328125,0.8260312080383301,-1.009842872619629,-0.9327251315116882
1712257596712615700,4.61761572265625,0.7760380506515503,-1.2441434860229492,-1.4998341798782349
1712257596722621400,4.627621337890625,1.0500011444091797,-0.9190273284912109,-1.1286430358886719
1712257596732627200,4.637627197265625,0.6547480821609497,-0.5622129440307617,-0.561448335647583
1712257596742633000,4.647633056640625,0.07464873790740967,-0.17768096923828125,-0.17773818969726562
1712257596752638700,4.657638671875,-0.752602756023407,-0.13716506958007812,-0.10864563286304474
1712257596762644500,4.66764453125,-1.1950560808181763,-0.2952890396118164,-0.6416343450546265
1712257596772650000,4.67764990234375,-0.6951263546943665,-0.6086969375610352,-0.7545206546783447
1712257596782655700,4.68765576171875,0.1175910234451294,-0.10865592956542969,0.10653775930404663
1712257596792661500,4.69766162109375,0.28523874282836914,0.2471170425415039,-0.3143242299556732
1712257596802667300,4.707667236328125,0.20503771305084229,-0.07579612731933594,-0.47838205099105835
1712257596812673000,4.717673095703125,0.20680755376815796,-0.17766475677490234,-0.4576800465583801
1712257596822678800,4.7276787109375,-0.18324345350265503,-0.20223712921142578,-0.40572094917297363
1712257596832684800,4.737684814453125,-0.8021311163902283,-0.19701004028320312,-0.32245072722435
1712257596842690600,4.747690673828125,-1.4210779666900635,-0.2619781494140625,-0.16484203934669495
1712257596852696300,4.7576962890625,-1.690680742263794,-0.30137062072753906,0.07386314868927002
1712257596862702000,4.7677021484375,-1.5021047592163086,-0.29640674591064453,0.3143777847290039
1712257596872707800,4.777707763671875,-1.1778701543807983,-0.2094573974609375,0.5586333274841309
1712257596882713600,4.787713623046875,-0.8143155574798584,-0.11759471893310547,0.6646283864974976
1712257596892719400,4.79771923828125,-0.5990750193595886,0.017081260681152344,0.632810115814209
1712257596902725000,4.80772509765625,-0.5626316666603088,0.10834980010986328,0.5098251104354858
1712257596912731000,4.81773095703125,-0.647304892539978,0.12772560119628906,0.3661542236804962
1712257596922736600,4.827736572265625,-0.6483247876167297,0.16150188446044922,0.20040053129196167
1712257596932742400,4.837742431640625,-0.5323134660720825,0.21445178985595703,0.1789402961730957
1712257596942748200,4.847748046875,-0.25122007727622986,0.2291555404663086,0.13934767246246338
1712257596952754200,4.857754150390625,0.02413022518157959,0.1674213409423828,0.05709385871887207
1712257596962760000,4.867760009765625,0.23185431957244873,0.05333232879638672,-0.06817156076431274
1712257596972765700,4.877765625,0.3956910967826843,-0.01739025115966797,-0.1558704674243927
1712257596982771500,4.887771484375,0.598204493522644,-0.05448436737060547,-0.16833633184432983
1712257596992777200,4.897777099609375,0.7510139346122742,-0.12990665435791016,-0.05271068215370178
1712257597002783000,4.907782958984375,0.8231439590454102,-0.07187080383300781,0.11070412397384644
1712257597012788700,4.917788818359375,0.7350366115570068,0.004500389099121094,0.16955119371414185
1712257597022794500,4.92779443359375,0.37072306871414185,0.05632305145263672,0.1335650086402893
1712257597032800300,4.93780029296875,0.12921589612960815,0.1126089096069336,-0.0122489333152771
1712257597042806000,4.947805908203125,-0.02922922372817993,0.0015573501586914062,-0.006013453006744385
1712257597052811800,4.957811767578125,-0.11980736255645752,-0.11877155303955078,-0.01455831527709961
1712257597062817500,4.967817626953125,-0.2725180685520172,-0.15277481079101562,-0.023204505443572998
1712257597072823600,4.977823486328125,-0.5032011270523071,-0.1721963882446289,-0.04140681028366089
1712257597082829300,4.987829345703125,-0.7184352278709412,-0.2007761001586914,-0.03130912780761719
1712257597092835000,4.9978349609375,-0.8822155594825745,-0.18586349487304688,0.08929246664047241
1712257597102840800,5.0078408203125,-0.8909626603126526,-0.16094970703125,0.16805517673492432
1712257597112846600,5.0178466796875,-0.7352215051651001,-0.14995861053466797,0.23862558603286743
1712257597122852400,5.027852294921875,-0.4465758502483368,-0.16259479522705078,0.30179423093795776
1712257597132858000,5.037858154296875,-0.08415144681930542,-0.15606689453125,0.29128193855285645
1712257597142864000,5.04786376953125,0.20733952522277832,-0.04942131042480469,0.08659613132476807
1712257597152869600,5.05786962890625,0.43508970737457275,0.004151344299316406,-0.09380245208740234
1712257597162875400,5.06787548828125,0.5864652395248413,0.004711151123046875,-0.21791565418243408
1712257597172881200,5.077881103515625,0.5714260339736938,0.02400970458984375,-0.25790655612945557
1712257597182887000,5.087886962890625,0.4135854244232178,0.052494049072265625,-0.27132225036621094
1712257597192893000,5.097892822265625,0.1683388352394104,0.06642723083496094,-0.1957606077194214
1712257597202898400,5.1078984375,-0.01358872652053833,0.013461112976074219,-0.1500694751739502
1712257597212904200,5.117904296875,-0.1143919825553894,-0.0058422088623046875,-0.09109902381896973
1712257597222910000,5.127909912109375,-0.02462589740753174,0.008428573608398438,-0.02801603078842163
1712257597232915700,5.137915771484375,0.12748920917510986,-0.03468513488769531,0.03481501340866089
1712257597242921500,5.14792138671875,0.24234890937805176,-0.05869483947753906,0.002051413059234619
1712257597252927200,5.15792724609375,0.2964969277381897,-0.13051700592041016,-0.05964100360870361
1712257597262933000,5.16793310546875,0.31954407691955566,-0.1354351043701172,-0.02646571397781372
1712257597272938800,5.177938720703125,0.2592695355415344,-0.09752845764160156,0.02050262689590454
1712257597282944300,5.1879443359375,0.12551391124725342,-0.031208038330078125,-0.00032144784927368164
1712257597292950000,5.197949951171875,-0.13113850355148315,-0.08922481536865234,0.025600790977478027
1712257597302955800,5.207955810546875,-0.3397592604160309,-0.041907310485839844,-0.011479020118713379
1712257597312961500,5.21796142578125,-0.47677814960479736,0.09610366821289062,0.03295755386352539
1712257597322967300,5.22796728515625,-0.433539479970932,0.2672462463378906,0.22230041027069092
1712257597332973000,5.23797314453125,-0.387082576751709,0.21986103057861328,0.37049269676208496
1712257597342978800,5.247978759765625,-0.37737250328063965,0.06031322479248047,0.302473783493042
1712257597352984600,5.257984619140625,-0.4563004672527313,-0.14352035522460938,0.14332342147827148
1712257597362990000,5.267989990234375,-0.48682981729507446,-0.2777547836303711,-0.09272587299346924
1712257597372995800,5.277995849609375,-0.4509733021259308,-0.3340444564819336,-0.24111700057983398
1712257597383001600,5.288001708984375,-0.3536730408668518,-0.3231210708618164,-0.18626585602760315
1712257597393007400,5.29800732421875,-0.20839747786521912,-0.25565624237060547,-0.14766350388526917
1712257597403013000,5.30801318359375,-0.08019745349884033,-0.15155982971191406,-0.11982271075248718
1712257597413019000,5.318018798828125,-0.08586335182189941,-0.1104116439819336,0.05363267660140991
1712257597423024600,5.328024658203125,-0.17673614621162415,-0.041749000549316406,0.17881566286087036
1712257597433030400,5.338030517578125,-0.3102646768093109,0.03521919250488281,0.1717870831489563
1712257597443036200,5.3480361328125,-0.3832530677318573,0.04981040954589844,0.20422840118408203
1712257597453041700,5.358041748046875,-0.3826521039009094,0.08781719207763672,0.19098210334777832
1712257597463047400,5.36804736328125,-0.3809540271759033,0.059474945068359375,0.033497393131256104
1712257597473053200,5.37805322265625,-0.31240418553352356,0.013075828552246094,-0.0690985918045044
1712257597483059000,5.388058837890625,-0.23429661989212036,0.010194778442382812,-0.1563701629638672
1712257597493064700,5.398064697265625,-0.3017263412475586,-0.04876995086669922,-0.10623344779014587
1712257597503070500,5.408070556640625,-0.5088779330253601,-0.12039852142333984,-0.07118624448776245
1712257597513076200,5.418076171875,-0.7133110165596008,-0.14781856536865234,-0.09847685694694519
1712257597523082000,5.42808203125,-0.9155483245849609,-0.19759273529052734,0.005934953689575195
1712257597533087500,5.43808740234375,-1.239924669265747,-0.22681236267089844,0.14242666959762573
1712257597543093200,5.44809326171875,-1.7251214981079102,-0.24488258361816406,0.160464346408844
1712257597553099000,5.45809912109375,-2.301665782928467,-0.24202442169189453,0.05720549821853638
1712257597563104800,5.468104736328125,-2.8912153244018555,-0.2556018829345703,-0.10558921098709106
1712257597573110500,5.478110595703125,-3.519559860229492,-0.4032020568847656,-0.07433131337165833
1712257597583116300,5.4881162109375,-3.9196670055389404,-0.44018077850341797,-0.105965256690979
1712257597593122000,5.4981220703125,-4.0182318687438965,-0.436737060546875,-0.3029050827026367
1712257597603127800,5.5081279296875,-3.8147003650665283,-0.8499956130981445,-0.6767153143882751
1712257597613133300,5.51813330078125,-3.4470438957214355,-0.5402374267578125,-0.7643197178840637
1712257597623139000,5.52813916015625,-2.945709228515625,-0.8119926452636719,-0.14942190051078796
1712257597633144800,5.538144775390625,-2.680121421813965,-1.3381071090698242,0.15459024906158447
1712257597643150600,5.548150634765625,-2.403122901916504,-1.2709722518920898,-0.2010916769504547
1712257597653156400,5.55815625,-2.44313383102417,-1.5274691581726074,-0.039886653423309326
1712257597663162000,5.568162109375,-2.345309257507324,-1.9854774475097656,0.2954474091529846
1712257597673168000,5.57816796875,-2.2655954360961914,-2.251404285430908,0.44865554571151733
1712257597683173600,5.588173583984375,-2.5467162132263184,-2.4433116912841797,0.7272844910621643
1712257597693179100,5.59817919921875,-2.891979217529297,-2.525485038757324,0.9146607518196106
1712257597703185000,5.608184814453125,-3.2959561347961426,-2.562584400177002,1.0325579643249512
1712257597713190700,5.618190673828125,-3.280703544616699,-2.8618383407592773,0.8614991903305054
1712257597723196400,5.628196533203125,-3.150071620941162,-3.829512119293213,-0.7753039598464966
1712257597733202200,5.6382021484375,-2.695314645767212,-4.023530960083008,-0.798202633857727
1712257597743208000,5.6482080078125,-1.557234764099121,-4.193070888519287,-1.1023914813995361
1712257597753213700,5.658213623046875,0.11592721939086914,-4.3639984130859375,-0.7283114194869995
1712257597763219500,5.668219482421875,1.6556086540222168,-4.4730329513549805,-0.07059288024902344
1712257597773225200,5.67822509765625,2.801875114440918,-4.464780807495117,0.19985485076904297
1712257597783230700,5.688230712890625,3.540144443511963,-4.299432277679443,0.07838892936706543
1712257597793236500,5.698236572265625,3.304102897644043,-4.177127838134766,0.20988965034484863
1712257597803242200,5.7082421875,2.9455060958862305,-3.7869222164154053,1.0919153690338135
1712257597813248000,5.718248046875,2.0594682693481445,-3.1739492416381836,1.6053417921066284
1712257597823253800,5.728253662109375,1.1442680358886719,-2.3529200553894043,0.9019976854324341
1712257597833259500,5.738259521484375,1.0763330459594727,-1.9216036796569824,0.7225347757339478
1712257597843265300,5.748265380859375,1.3824052810668945,-1.0273449420928955,1.0847289562225342
1712257597853271000,5.75827099609375,1.6873846054077148,-0.25633764266967773,0.21214914321899414
1712257597863276800,5.76827685546875,1.9302349090576172,0.10973501205444336,-0.49097079038619995
1712257597873282800,5.77828271484375,2.4349355697631836,0.4489870071411133,0.04350250959396362
1712257597883288600,5.78828857421875,4.081954002380371,0.7164931297302246,-0.6365339756011963
1712257597893294300,5.79829443359375,5.5363874435424805,0.29660677909851074,-2.0943899154663086
1712257597903300000,5.808300048828125,6.155818939208984,-0.06156003475189209,-2.233421802520752
1712257597913305900,5.818305908203125,6.44536018371582,-0.10178422927856445,-1.4619454145431519
1712257597923311600,5.8283115234375,6.278169631958008,-0.22288042306900024,-0.3478390574455261
1712257597933317400,5.8383173828125,5.857255935668945,-0.13019829988479614,0.017349977046251297
1712257597943323100,5.8483232421875,5.347664833068848,-0.15839838981628418,0.18187589943408966
1712257597953329000,5.858328857421875,4.843252182006836,-0.14508092403411865,0.29830580949783325
1712257597963334700,5.868334716796875,4.118289947509766,0.00013965368270874023,0.29059648513793945
1712257597973340400,5.87834033203125,3.119887351989746,0.021783530712127686,0.1734367311000824
1712257597983346200,5.88834619140625,2.082036018371582,-0.003725111484527588,0.061089009046554565
1712257597993352200,5.898352294921875,1.1236181259155273,0.004230976104736328,0.024485070258378983
1712257598003358000,5.90835791015625,0.4015483856201172,0.00946497917175293,0.03940442204475403
1712257598013363700,5.91836376953125,-0.05640983581542969,-0.13243412971496582,-0.17709499597549438
1712257598023369500,5.928369384765625,-0.27973270416259766,0.005372583866119385,-0.027132617309689522
1712257598033375200,5.938375244140625,-0.2402181625366211,0.11928927898406982,0.09878695011138916
1712257598043381000,5.948381103515625,-0.1771564483642578,0.13522636890411377,0.04421684890985489
1712257598053386800,5.95838671875,-0.07126522064208984,0.06483912467956543,0.025559887290000916
1712257598063392500,5.968392578125,0.10634803771972656,-0.05200928449630737,0.03316466510295868
1712257598073398300,5.978398193359375,0.1264047622680664,-0.1021386981010437,0.007828108966350555
1712257598083404000,5.988404052734375,0.013151168823242188,-0.042306602001190186,0.017212919890880585
1712257598093409800,5.998409912109375,-0.10422992706298828,-0.028844594955444336,0.1785857081413269
1712257598103415600,6.00841552734375,-0.20186328887939453,-0.022906124591827393,0.15103287994861603
1712257598113421600,6.018421630859375,-0.4710426330566406,0.010958433151245117,0.11673886328935623
1712257598123427300,6.02842724609375,-1.0172119140625,-0.016159415245056152,0.20605316758155823
1712257598133433000,6.03843310546875,-0.9465847015380859,-0.0645681619644165,0.2690141201019287
1712257598143438800,6.04843896484375,-0.9483499526977539,-0.030308008193969727,0.05394282937049866
1712257598153444600,6.058444580078125,-0.6400136947631836,0.027660250663757324,-0.2727522850036621
1712257598163450400,6.068450439453125,-0.2751646041870117,0.06373977661132812,-0.3820670545101166
1712257598173456100,6.0784560546875,0.09378433227539062,0.09480369091033936,-0.09099243581295013
1712257598183462000,6.0884619140625,0.3810863494873047,0.1560955047607422,0.17026770114898682
1712257598193467600,6.098467529296875,0.5248098373413086,0.16007959842681885,0.2654452621936798
1712257598203473400,6.108473388671875,0.5586099624633789,0.10221624374389648,0.3597496747970581
1712257598213479200,6.118479248046875,0.47313404083251953,0.04575347900390625,0.450906366109848
1712257598223485000,6.12848486328125,0.4214811325073242,0.07301640510559082,0.311557799577713
1712257598233490700,6.13849072265625,0.5710773468017578,0.11977100372314453,0.03951433300971985
1712257598243496400,6.148496337890625,0.6782970428466797,0.030798792839050293,-0.13097593188285828
1712257598253502200,6.158502197265625,0.6240530014038086,-0.08854067325592041,-0.23715676367282867
1712257598263508000,6.168508056640625,0.3654489517211914,-0.13502097129821777,-0.2583928108215332
1712257598273513700,6.178513671875,-0.1168050765991211,-0.1089484691619873,-0.11429288983345032
1712257598283519500,6.18851953125,-0.5172443389892578,-0.08717513084411621,-0.0686560571193695
1712257598293525000,6.19852490234375,-0.7793064117431641,-0.08586323261260986,-0.09557121992111206
1712257598303530800,6.20853076171875,-0.8320093154907227,-0.10393202304840088,-0.08802002668380737
1712257598313536500,6.21853662109375,-0.6614456176757812,-0.038127899169921875,-0.11130794882774353
1712257598323542300,6.228542236328125,-0.41107845306396484,0.03210461139678955,-0.03233611583709717
1712257598333548000,6.238548095703125,-0.09485435485839844,0.050953030586242676,0.040765464305877686
1712257598343553800,6.2485537109375,0.26865100860595703,0.11966967582702637,0.04783284664154053
1712257598353559600,6.2585595703125,0.49364471435546875,0.14838862419128418,0.10686850547790527
1712257598363565300,6.2685654296875,0.5999250411987305,0.14039957523345947,0.11057305335998535
1712257598373570800,6.27857080078125,0.6452360153198242,0.2008446455001831,-0.047526270151138306
1712257598383576600,6.28857666015625,0.5006599426269531,0.14927101135253906,-0.018340349197387695
1712257598393582300,6.298582275390625,0.2809638977050781,0.06917905807495117,0.05173075199127197
1712257598403588000,6.308588134765625,0.014645576477050781,-0.055896878242492676,0.02913641929626465
1712257598413593900,6.31859375,-0.2652912139892578,-0.16039371490478516,-0.08028799295425415
1712257598423599600,6.328599609375,-0.4447746276855469,-0.1647714376449585,-0.11743661761283875
1712257598433605400,6.33860546875,-0.5482845306396484,-0.1680828332901001,-0.05299943685531616
1712257598443611100,6.348611083984375,-0.5762882232666016,-0.14079511165618896,-0.034050047397613525
1712257598453616600,6.35861669921875,-0.5003557205200195,-0.030653953552246094,-0.06008291244506836
1712257598463622400,6.368622314453125,-0.28711795806884766,0.07453179359436035,-0.03949916362762451
1712257598473628200,6.378628173828125,-0.09897518157958984,0.12482118606567383,0.08027732372283936
1712257598483634000,6.388634033203125,0.04945087432861328,0.1123819351196289,0.03903073072433472
1712257598493639700,6.3986396484375,0.20490741729736328,0.06643354892730713,-0.13731792569160461
1712257598503645400,6.4086455078125,0.2735271453857422,-0.004735231399536133,-0.1472221314907074
1712257598513651200,6.418651123046875,0.31357860565185547,-0.06390190124511719,-0.09975600242614746
1712257598523657000,6.428656982421875,0.2690753936767578,-0.05942714214324951,0.012984693050384521
1712257598533662700,6.438662841796875,0.11290740966796875,-0.0339968204498291,0.07471597194671631
1712257598543668200,6.448668212890625,-0.03109264373779297,-0.024079561233520508,0.02347409725189209
1712257598553674000,6.458674072265625,-0.11163616180419922,-0.01391291618347168,-0.0014340877532958984
1712257598563679700,6.4686796875,-0.1815643310546875,0.010885953903198242,0.045649170875549316
1712257598573685500,6.478685546875,-0.3022289276123047,0.04544627666473389,0.011992931365966797
1712257598583691300,6.488691162109375,-0.4259681701660156,0.04808783531188965,-0.05237376689910889
1712257598593697000,6.498697021484375,-0.44005489349365234,0.005770683288574219,-0.040038466453552246
1712257598603702800,6.508702880859375,-0.3794384002685547,-0.037653565406799316,-0.008548080921173096
1712257598613708500,6.51870849609375,-0.36303234100341797,-0.02997457981109619,-0.03549230098724365
1712257598623714000,6.528714111328125,-0.3288593292236328,-0.02792203426361084,-0.09395301342010498
1712257598633719800,6.5387197265625,-0.2252941131591797,0.03913676738739014,-0.09100943803787231
1712257598643725600,6.5487255859375,-0.12369632720947266,0.06974971294403076,-0.03951376676559448
1712257598653731300,6.5587314453125,-0.11347007751464844,0.07370889186859131,-0.020120680332183838
1712257598663737000,6.568737060546875,-0.023481369018554688,0.07878339290618896,0.01596057415008545
1712257598673742800,6.578742919921875,0.022579193115234375,0.06508135795593262,0.04251903295516968
1712257598683748600,6.58874853515625,0.0724802017211914,0.04206669330596924,0.02374851703643799
1712257598693754400,6.59875439453125,0.11222362518310547,0.04196369647979736,0.025965392589569092
1712257598703760000,6.608759765625,0.19393539428710938,0.03552603721618652,-0.027306318283081055
1712257598713765600,6.618765625,0.29833412170410156,0.027017712593078613,-0.10479789972305298
1712257598723771400,6.628771484375,0.36410045623779297,0.04372048377990723,-0.07111319899559021
1712257598733777200,6.638777099609375,0.31185436248779297,0.028560757637023926,0.010729789733886719
1712257598743783000,6.648782958984375,0.17162227630615234,0.0675879716873169,0.06555044651031494
1712257598753788700,6.65878857421875,-0.0036525726318359375,0.0764625072479248,0.07628202438354492
1712257598763794400,6.66879443359375,-0.17130184173583984,0.047583699226379395,0.044491469860076904
1712257598773800200,6.67880029296875,-0.2704277038574219,-0.02660214900970459,0.012398242950439453
1712257598783806000,6.688805908203125,-0.30243587493896484,-0.06428194046020508,-0.028294384479522705
1712257598793811500,6.6988115234375,-0.22143840789794922,-0.04238879680633545,-0.05771481990814209
1712257598803817200,6.708817138671875,-0.1751079559326172,-0.019319772720336914,-0.08560994267463684
1712257598813823000,6.718822998046875,-0.18162155151367188,0.018334150314331055,-0.09690871834754944
1712257598823828700,6.728828857421875,-0.17886066436767578,0.00930798053741455,-0.060001373291015625
1712257598833834500,6.73883447265625,-0.10567760467529297,0.05816984176635742,-0.08631280064582825
1712257598843840300,6.74884033203125,-0.052437782287597656,0.10173320770263672,-0.06309503316879272
1712257598853846000,6.758845947265625,-0.07070732116699219,0.06422686576843262,0.04538005590438843
1712257598863851800,6.768851806640625,-0.037079811096191406,0.10727369785308838,0.09954100847244263
1712257598873857500,6.778857421875,-0.07944297790527344,0.05099129676818848,-0.020696043968200684
1712257598883863300,6.78886328125,-0.1731863021850586,0.011202692985534668,-0.025577545166015625
1712257598893869000,6.798869140625,-0.25635814666748047,-0.05394852161407471,-0.016574621200561523
1712257598903874800,6.808874755859375,-0.2680807113647461,-0.10586285591125488,-0.020978271961212158
1712257598913880600,6.818880615234375,-0.19545650482177734,-0.11249208450317383,0.09664928913116455
1712257598923886300,6.82888623046875,0.03106975555419922,-0.03356778621673584,0.14948153495788574
1712257598933892400,6.838892333984375,0.2210988998413086,0.03348946571350098,-0.001036912202835083
1712257598943898000,6.848898193359375,0.3234748840332031,0.10746335983276367,-0.0875166654586792
1712257598953903900,6.85890380859375,0.40096378326416016,0.17372095584869385,-0.08794012665748596
1712257598963909600,6.86890966796875,0.4164104461669922,0.22223198413848877,-0.02185499668121338
1712257598973915400,6.878915283203125,0.3896751403808594,0.2058321237564087,0.07835045456886292
1712257598983921200,6.888921142578125,0.40604114532470703,0.18771660327911377,0.03823322057723999
1712257598993927000,6.898927001953125,0.4272909164428711,0.15343213081359863,-0.019573956727981567
1712257599003932700,6.9089326171875,0.39705467224121094,0.0789802074432373,0.002335280179977417
1712257599013938400,6.9189384765625,0.24094486236572266,-0.006727814674377441,0.03431028127670288
1712257599023944200,6.928944091796875,0.0455322265625,-0.06910121440887451,-0.022697389125823975
1712257599033950000,6.938949951171875,-0.14189910888671875,-0.08292829990386963,-0.04788222908973694
1712257599043955700,6.948955810546875,-0.26523399353027344,-0.06662118434906006,-0.0554528534412384
1712257599053961700,6.958961669921875,-0.3350486755371094,-0.02459120750427246,-0.08534309267997742
1712257599063967500,6.968967529296875,-0.3004140853881836,0.03793442249298096,-0.10470037162303925
1712257599073973200,6.97897314453125,-0.22893142700195312,0.08724474906921387,-0.004891574382781982
1712257599083979000,6.98897900390625,-0.10230827331542969,0.07563674449920654,0.035638898611068726
1712257599093984800,6.99898486328125,0.02689838409423828,0.08316576480865479,0.014244407415390015
1712257599103990500,7.008990478515625,0.10233116149902344,0.0754389762878418,0.026836246252059937
1712257599113996300,7.018996337890625,0.09677505493164062,0.047078609466552734,0.022022783756256104
1712257599124002000,7.029001953125,0.05853557586669922,-0.005890846252441406,0.048575788736343384
1712257599134007800,7.0390078125,-0.044933319091796875,-0.0305558443069458,0.06339341402053833
1712257599144013600,7.049013671875,-0.12335681915283203,-0.002324700355529785,0.019078761339187622
1712257599154019300,7.059019287109375,-0.16786956787109375,0.02246546745300293,-0.0569300651550293
1712257599164025000,7.069025146484375,-0.19800758361816406,-0.002397894859313965,-0.06587198376655579
1712257599174031000,7.079031005859375,-0.13402557373046875,-0.01909196376800537,-0.042777180671691895
1712257599184036900,7.089036865234375,-0.05265522003173828,0.014020562171936035,-0.05563563108444214
1712257599194042600,7.099042724609375,0.05070972442626953,0.08577072620391846,-0.03806987404823303
1712257599204048400,7.10904833984375,0.17126083374023438,0.09049618244171143,0.005085766315460205
1712257599214054100,7.11905419921875,0.2996549606323242,0.07457137107849121,-0.025540173053741455
1712257599224060000,7.129059814453125,0.3323640823364258,0.0653911828994751,-0.04283049702644348
1712257599234065700,7.139065673828125,0.2709541320800781,0.057733893394470215,-0.02076965570449829
1712257599244071400,7.149071533203125,0.18272018432617188,0.07582390308380127,0.01786494255065918
1712257599254077200,7.1590771484375,0.06331634521484375,0.04427897930145264,0.03533071279525757
1712257599264083000,7.1690830078125,-0.035213470458984375,0.021651506423950195,-0.01892027258872986
1712257599274088700,7.179088623046875,-0.14161968231201172,0.018241286277770996,-0.008338868618011475
1712257599284094200,7.18909423828125,-0.25128746032714844,-0.011634230613708496,-0.007473975419998169
1712257599294100000,7.199099853515625,-0.33145809173583984,-0.018922090530395508,-0.050481319427490234
1712257599304105700,7.209105712890625,-0.30275630950927734,-0.00787806510925293,-0.07513242959976196
1712257599314111500,7.219111572265625,-0.1668109893798828,0.006435871124267578,-0.02213895320892334
1712257599324117200,7.2291171875,-0.014543533325195312,0.02733147144317627,-0.045047104358673096
1712257599334123000,7.239123046875,0.14470863342285156,0.06251955032348633,-0.07737892866134644
1712257599344128800,7.249128662109375,0.25923728942871094,0.10124266147613525,-0.024141252040863037
1712257599354134500,7.259134521484375,0.3630056381225586,0.12798583507537842,0.005420327186584473
1712257599364140000,7.26914013671875,0.4798765182495117,0.12760639190673828,0.019035816192626953
1712257599374145800,7.279145751953125,0.4967517852783203,0.06635689735412598,0.02899685502052307
1712257599384151600,7.289151611328125,0.4342031478881836,0.029168248176574707,0.013729602098464966
1712257599394157300,7.2991572265625,0.22740554809570312,0.021046042442321777,0.05545368790626526
1712257599404163000,7.3091630859375,-0.03680229187011719,0.04804229736328125,0.058244794607162476
1712257599414168800,7.3191689453125,-0.28718090057373047,0.0553281307220459,0.02074757218360901
1712257599424174600,7.329174560546875,-0.4395427703857422,0.050107598304748535,-0.03487163782119751
1712257599434180400,7.339180419921875,-0.5475444793701172,0.033936142921447754,-0.0716773271560669
1712257599444185900,7.349185791015625,-0.5649623870849609,-0.011124849319458008,-0.08121386170387268
1712257599454191600,7.359191650390625,-0.5263328552246094,-0.028008103370666504,-0.05376818776130676
1712257599464197400,7.369197265625,-0.4939403533935547,0.006537675857543945,0.016631364822387695
1712257599474203100,7.379203125,-0.46771812438964844,0.03994452953338623,0.03072977066040039
1712257599484209000,7.389208984375,-0.3911275863647461,0.02555394172668457,0.01747220754623413
1712257599494214700,7.399214599609375,-0.21298980712890625,0.005954623222351074,-0.03379732370376587
1712257599504220400,7.409220458984375,-0.03332042694091797,-0.011253952980041504,-0.026403367519378662
1712257599514226200,7.41922607421875,0.035216331481933594,-0.027771830558776855,0.014832377433776855
1712257599524232000,7.42923193359375,0.07908344268798828,-0.02015984058380127,0.007692277431488037
1712257599534237400,7.439237548828125,0.15034103393554688,0.04897463321685791,-0.04487985372543335
1712257599544243200,7.4492431640625,0.19687843322753906,0.13492488861083984,-0.06499183177947998
1712257599554249000,7.4592490234375,0.1250438690185547,0.31479477882385254,-0.12654823064804077
1712257599564254700,7.469254638671875,0.1441059112548828,0.2265942096710205,0.1920861005783081
1712257599574260500,7.479260498046875,0.22934818267822266,0.07023561000823975,0.10369199514389038
1712257599584266200,7.489266357421875,0.28093719482421875,-0.01985788345336914,-0.119672030210495
1712257599594272000,7.49927197265625,0.36539554595947266,-0.010968685150146484,-0.08468315005302429
1712257599604277800,7.50927783203125,0.3550987243652344,0.029128193855285645,-0.01787230372428894
1712257599614283300,7.519283203125,0.23718547821044922,0.024988532066345215,-0.018852442502975464
1712257599624289000,7.5292890625,0.11675643920898438,0.0061190128326416016,0.025509655475616455
1712257599634294800,7.539294677734375,-0.03454399108886719,-0.022257566452026367,0.05039823055267334
1712257599644300500,7.549300537109375,-0.1268310546875,0.02025628089904785,-0.018145501613616943
1712257599654306300,7.559306396484375,-0.2129507064819336,0.06686830520629883,-0.04664158821105957
1712257599664312000,7.56931201171875,-0.2602195739746094,0.05699622631072998,-0.020985126495361328
1712257599674317800,7.57931787109375,-0.25534915924072266,0.034969329833984375,0.024757564067840576
1712257599684323600,7.589323486328125,-0.2086801528930664,-0.0033327341079711914,-0.004367649555206299
1712257599694329000,7.5993291015625,-0.0642690658569336,-0.0015816688537597656,-0.12216565012931824
1712257599704334800,7.6093349609375,-0.04481983184814453,0.0006786584854125977,-0.049168944358825684
1712257599714340600,7.619340576171875,-0.09187030792236328,0.013419032096862793,0.01394122838973999
1712257599724346400,7.629346435546875,-0.10556411743164062,0.013628840446472168,0.0013080239295959473
1712257599734352100,7.63935205078125,-0.147796630859375,-0.002489924430847168,-0.03409302234649658
1712257599744358000,7.64935791015625,-0.1004476547241211,0.055358171463012695,-0.12073460221290588
1712257599754363600,7.65936376953125,0.068359375,0.06671035289764404,-0.052603691816329956
1712257599764369400,7.669369384765625,0.3429384231567383,0.0537337064743042,-0.035643160343170166
1712257599774375200,7.679375244140625,0.5855083465576172,0.089263916015625,-0.0073639750480651855
1712257599784380700,7.689380615234375,0.6131706237792969,0.048688650131225586,0.13183921575546265
1712257599794386400,7.699386474609375,0.5516996383666992,0.01830744743347168,0.11021560430526733
1712257599804392200,7.70939208984375,0.45892333984375,0.0315319299697876,0.05360746383666992
1712257599814398000,7.71939794921875,0.3212604522705078,0.07391607761383057,0.02677738666534424
1712257599824403700,7.72940380859375,0.12536048889160156,0.12201595306396484,0.01284712553024292
1712257599834409500,7.739409423828125,-0.08578014373779297,0.1682811975479126,-0.04038882255554199
1712257599844415200,7.749415283203125,-0.23704051971435547,0.14401066303253174,-0.09278950095176697
1712257599854421000,7.7594208984375,-0.3106689453125,0.04118025302886963,-0.07777917385101318
1712257599864426500,7.769426513671875,-0.3502225875854492,-0.049788594245910645,-0.03029787540435791
1712257599874432300,7.779432373046875,-0.41290283203125,-0.062691330909729,-0.0021954774856567383
1712257599884438000,7.78943798828125,-0.45604515075683594,-0.04091036319732666,-0.0019382834434509277
1712257599894443800,7.79944384765625,-0.48482513427734375,-0.0596691370010376,-0.005580723285675049
1712257599904449500,7.809449462890625,-0.4242982864379883,-0.05594301223754883,-0.019081056118011475
1712257599914455300,7.819455322265625,-0.31369972229003906,-0.006330728530883789,-0.046499669551849365
1712257599924461000,7.8294609375,-0.1773853302001953,0.036011695861816406,0.012848258018493652
1712257599934466800,7.839466796875,-0.048519134521484375,0.037085652351379395,0.06821393966674805
1712257599944472600,7.84947265625,0.10160064697265625,0.06650090217590332,0.01635664701461792
1712257599954478300,7.859478271484375,0.1787729263305664,0.0847998857498169,0.027585327625274658
1712257599964484000,7.869484130859375,0.1890573501586914,0.1151047945022583,-0.03600287437438965
1712257599974489900,7.87948974609375,0.21360492706298828,0.1571439504623413,-0.026789724826812744
1712257599984495600,7.88949560546875,0.22405529022216797,0.13032102584838867,0.07189583778381348
1712257599994501400,7.89950146484375,0.21117591857910156,0.06950879096984863,0.0638321042060852
1712257600004507100,7.909507080078125,0.194091796875,-0.019393563270568848,0.025670170783996582
1712257600014513000,7.919512939453125,0.16317462921142578,-0.06445002555847168,0.016335368156433105
1712257600024518700,7.9295185546875,0.09967517852783203,-0.0655820369720459,0.044460952281951904
1712257600034524400,7.9395244140625,0.01823902130126953,-0.013484835624694824,-0.02407705783843994
1712257600044530200,7.9495302734375,-0.06674385070800781,0.03949415683746338,-0.06574976444244385
1712257600054536200,7.9595361328125,-0.14586925506591797,0.05095672607421875,-0.032684504985809326
1712257600064542000,7.9695419921875,-0.15331554412841797,0.030101418495178223,-0.05493265390396118
1712257600074547700,7.979547607421875,-0.05708503723144531,0.013404369354248047,-0.040350914001464844
1712257600084553500,7.989553466796875,0.019052505493164062,0.04632246494293213,-0.00014448165893554688
1712257600094559200,7.999559326171875,0.042598724365234375,0.1138908863067627,-0.026185333728790283
