time,seconds_elapsed,z,y,x
1712257561903625000,0.053625,0,0,0
1712257561913625000,0.063625,-0.01009368896484375,-0.016076326370239258,0.03395265340805054
1712257561923625700,0.073625732421875,-0.07900619506835938,-0.07135653495788574,0.035925209522247314
1712257561933627000,0.083626953125,-0.06722640991210938,-0.0760047435760498,-0.1947839856147766
1712257561943629000,0.093629150390625,0.04981803894042969,-0.06015419960021973,-0.0033725500106811523
1712257561953632000,0.103632080078125,0.1831207275390625,-0.006364107131958008,0.11958861351013184
1712257561963635700,0.1136357421875,0.24744224548339844,-0.03685116767883301,0.218281090259552
1712257561973640700,0.123640625,0.39130115509033203,-0.026271343231201172,0.0743023157119751
1712257561983646500,0.133646484375,0.6608924865722656,0.11334538459777832,0.050566673278808594
1712257561993653200,0.1436533203125,0.8044023513793945,0.22388768196105957,0.039539337158203125
1712257562003660800,0.153660888671875,0.7829570770263672,0.22667336463928223,-0.030185401439666748
1712257562013669400,0.16366943359375,0.7581338882446289,0.17016267776489258,-0.12466490268707275
1712257562023678200,0.17367822265625,0.7070064544677734,0.09244823455810547,-0.17426079511642456
1712257562033687800,0.183687744140625,0.5496654510498047,0.02986884117126465,-0.2562081217765808
1712257562043697700,0.19369775390625,0.38397789001464844,0.00021195411682128906,-0.3782992362976074
1712257562053707500,0.20370751953125,0.2079935073852539,-0.06020092964172363,0.26247215270996094
1712257562063716600,0.213716552734375,0.09230804443359375,-0.13080978393554688,0.5108730792999268
1712257562073722400,0.223722412109375,-0.062835693359375,-0.1282215118408203,0.1912868618965149
1712257562083728100,0.23372802734375,-0.1340961456298828,-0.10013556480407715,-0.08947104215621948
1712257562093734000,0.24373388671875,-0.03038311004638672,-0.03852057456970215,-0.2860229015350342
1712257562103739600,0.25373974609375,0.22748661041259766,0.048949480056762695,-0.2995792627334595
1712257562113745400,0.263745361328125,0.48384857177734375,0.0948033332824707,-0.41085031628608704
1712257562123751200,0.273751220703125,0.6674375534057617,0.08027982711791992,-0.3580746054649353
1712257562133757000,0.2837568359375,0.7044439315795898,0.05636310577392578,-0.14845752716064453
1712257562143762700,0.2937626953125,0.5964231491088867,0.04914402961730957,-0.09265989065170288
1712257562153768200,0.303768310546875,0.2421875,0.008212089538574219,-0.1956028938293457
1712257562163774000,0.31377392578125,-0.12990474700927734,-0.06183052062988281,-0.2528667449951172
1712257562173779700,0.32377978515625,-0.3966989517211914,-0.0917668342590332,-0.19622206687927246
1712257562183785500,0.333785400390625,-0.46158790588378906,-0.07089543342590332,-0.22896713018417358
1712257562193791200,0.343791259765625,-0.32691097259521484,-0.005063295364379883,-0.3025077283382416
1712257562203797000,0.353796875,-0.25796031951904297,-0.02649712562561035,-0.21162787079811096
1712257562213802800,0.363802734375,-0.2151966094970703,-0.0685882568359375,-0.1040765643119812
1712257562223808500,0.37380859375,-0.239471435546875,-0.089080810546875,-0.06893163919448853
1712257562233814000,0.38381396484375,-0.34780311584472656,-0.07366681098937988,-0.07569319009780884
1712257562243819800,0.39381982421875,-0.5992860794067383,-0.09067845344543457,-0.15001028776168823
1712257562253825500,0.403825439453125,-0.6979761123657227,-0.12754249572753906,-0.12010359764099121
1712257562263831300,0.413831298828125,-0.6577548980712891,-0.10858464241027832,-0.06625020503997803
1712257562273837000,0.423837158203125,-0.43500614166259766,-0.07374191284179688,-0.05653369426727295
1712257562283842800,0.4338427734375,-0.13087940216064453,-0.05414104461669922,-0.12217655777931213
1712257562293848600,0.4438486328125,0.14693832397460938,-0.020250558853149414,-0.14327538013458252
1712257562303854300,0.453854248046875,0.3303375244140625,0.05265665054321289,-0.11287423968315125
1712257562313859800,0.46385986328125,0.4035673141479492,0.09650921821594238,-0.06909623742103577
1712257562323865600,0.473865478515625,0.3551673889160156,0.06979560852050781,-0.06683811545372009
1712257562333871400,0.483871337890625,0.20613956451416016,0.017163991928100586,-0.00472569465637207
1712257562343877000,0.493877197265625,0.07982349395751953,0.005833864212036133,0.043385326862335205
1712257562353883000,0.5038828125,0.07861042022705078,-0.0069200992584228516,-0.15777206420898438
1712257562363888600,0.513888671875,0.1391277313232422,0.016456127166748047,-0.16762559115886688
1712257562373894400,0.523894287109375,0.12863731384277344,0.08523797988891602,-0.1398429572582245
1712257562383900200,0.533900146484375,0.11867809295654297,0.09134793281555176,-0.18191802501678467
1712257562393906000,0.543906005859375,0.06679248809814453,0.0836644172668457,-0.2552301287651062
1712257562403911400,0.553911376953125,-0.017301559448242188,0.09671640396118164,-0.311964213848114
1712257562413917200,0.563917236328125,-0.14296531677246094,0.10812258720397949,-0.2666626572608948
1712257562423923000,0.5739228515625,-0.21601295471191406,0.08129024505615234,-0.13614115118980408
1712257562433928700,0.5839287109375,-0.20926570892333984,0.08226156234741211,0.02459418773651123
1712257562443934500,0.5939345703125,-0.1050577163696289,0.029514551162719727,0.08426988124847412
1712257562453940200,0.603940185546875,0.07207107543945312,-0.007393598556518555,0.07198795676231384
1712257562463946000,0.613946044921875,0.246551513671875,-0.040879011154174805,0.12956523895263672
1712257562473951700,0.62395166015625,0.3438234329223633,-0.011634111404418945,0.18464982509613037
1712257562483957200,0.633957275390625,0.3607826232910156,0.0033957958221435547,0.11350101232528687
1712257562493963000,0.643962890625,0.2420978546142578,-0.01347208023071289,0.04294538497924805
1712257562503968800,0.65396875,0.0882406234741211,-0.00786137580871582,-0.02389463782310486
1712257562513974500,0.663974609375,-0.0018911361694335938,-0.001728057861328125,-0.08335769176483154
1712257562523980300,0.673980224609375,-0.0061626434326171875,0.024840116500854492,-0.08834615349769592
1712257562533986000,0.683986083984375,0.02690887451171875,0.019597768783569336,-0.10971730947494507
1712257562543991800,0.69399169921875,0.04022216796875,0.029956817626953125,-0.11800259351730347
1712257562553997600,0.70399755859375,0.04844379425048828,0.007771730422973633,-0.08426249027252197
1712257562564003000,0.714003173828125,0.09897708892822266,0.004480600357055664,-0.04576411843299866
1712257562574008800,0.7240087890625,0.1206350326538086,0.03810477256774902,-0.030679821968078613
1712257562584014600,0.7340146484375,0.14220905303955078,0.046813011169433594,-0.021227478981018066
1712257562594020400,0.744020263671875,0.13543987274169922,0.04506731033325195,0.011768758296966553
1712257562604026000,0.754026123046875,0.04883861541748047,0.047556400299072266,0.0220392644405365
1712257562614032000,0.764031982421875,-0.06477165222167969,0.0363612174987793,-0.04186168313026428
1712257562624037600,0.77403759765625,-0.08735084533691406,0.012228012084960938,-0.1089688241481781
1712257562634043400,0.78404345703125,0.031676292419433594,0.05933690071105957,-0.08640128374099731
1712257562644049200,0.794049072265625,0.08782577514648438,0.057607412338256836,-0.05530673265457153
1712257562654054700,0.8040546875,0.10565662384033203,0.06907224655151367,-0.010295778512954712
1712257562664060400,0.814060302734375,0.07618522644042969,0.05661296844482422,0.05695566534996033
1712257562674066200,0.824066162109375,0.051718711853027344,0.04043889045715332,0.1312257945537567
1712257562684072000,0.834072021484375,0.0133819580078125,0.053383588790893555,0.11865627765655518
1712257562694077700,0.84407763671875,-0.04323387145996094,0.03817152976989746,0.12481209635734558
1712257562704083500,0.85408349609375,-0.08010196685791016,0.023206710815429688,0.08933436870574951
1712257562714089200,0.864089111328125,-0.09281349182128906,0.013000249862670898,-0.014579474925994873
1712257562724095000,0.874094970703125,-0.05341529846191406,0.011794805526733398,-0.029975712299346924
1712257562734100500,0.8841005859375,-0.01435089111328125,0.014119863510131836,-0.024951666593551636
1712257562744106200,0.894106201171875,0.005551338195800781,0.005896568298339844,-0.06661462783813477
1712257562754112000,0.904112060546875,-0.031217575073242188,0.011527538299560547,-0.07077550888061523
1712257562764117800,0.91411767578125,-0.0863962173461914,-0.005809783935546875,-0.12709935009479523
1712257562774123500,0.92412353515625,-0.09875297546386719,0.011685848236083984,-0.21115410327911377
1712257562784129300,0.93412939453125,-0.08319854736328125,0.026075363159179688,-0.20550376176834106
1712257562794135000,0.944135009765625,-0.021305084228515625,-0.010001659393310547,-0.10577569901943207
1712257562804140800,0.954140869140625,0.04851055145263672,-0.011070489883422852,-0.012007206678390503
1712257562814146300,0.964146240234375,0.1122732162475586,0.03559517860412598,0.018623769283294678
1712257562824152000,0.974152099609375,0.18919754028320312,0.08596348762512207,-0.06032755970954895
1712257562834157800,0.98415771484375,0.29819297790527344,0.10605430603027344,-0.08686226606369019
1712257562844163600,0.99416357421875,0.34009647369384766,0.10030674934387207,-0.08581423759460449
1712257562854169300,1.00416943359375,0.37267208099365234,0.07346773147583008,-0.044138938188552856
1712257562864175000,1.014175048828125,0.4199075698852539,0.07671022415161133,-0.056317538022994995
1712257562874180900,1.024180908203125,0.3404531478881836,0.04320573806762695,-0.027781277894973755
1712257562884186600,1.0341865234375,0.17369461059570312,-0.0017261505126953125,-0.005058854818344116
1712257562894192000,1.044192138671875,-0.032431602478027344,-0.013657569885253906,-0.010682880878448486
1712257562904198000,1.054197998046875,-0.22609901428222656,-0.014811038970947266,-0.0007851719856262207
1712257562914203600,1.06420361328125,-0.33738136291503906,0.019571781158447266,-0.030708372592926025
1712257562924209400,1.07420947265625,-0.33013439178466797,0.06584763526916504,-0.07196521759033203
1712257562934215200,1.084215087890625,-0.24846839904785156,0.05730748176574707,-0.055441707372665405
1712257562944221000,1.094220947265625,-0.16871166229248047,-0.01994776725769043,-0.04432588815689087
1712257562954226700,1.104226806640625,-0.14726543426513672,-0.05665946006774902,-0.048265933990478516
1712257562964232400,1.114232421875,-0.16902923583984375,-0.025340557098388672,-0.04748523235321045
1712257562974238200,1.12423828125,-0.1863536834716797,-0.020908355712890625,-0.012798815965652466
1712257562984243700,1.13424365234375,-0.1805553436279297,-0.0003590583801269531,0.046457141637802124
1712257562994249500,1.14424951171875,-0.13304519653320312,0.016797780990600586,0.049657225608825684
1712257563004255200,1.154255126953125,0.01707744598388672,0.04357266426086426,0.04920557141304016
1712257563014261000,1.164260986328125,0.19338417053222656,0.07796144485473633,0.0017502903938293457
1712257563024266800,1.174266845703125,0.3111896514892578,0.11846661567687988,-0.014263033866882324
1712257563034272500,1.1842724609375,0.3481864929199219,0.11249184608459473,-0.06195323169231415
1712257563044278300,1.1942783203125,0.30562877655029297,0.07993054389953613,-0.08894109725952148
1712257563054284000,1.204283935546875,0.20795822143554688,0.06487560272216797,-0.07572700083255768
1712257563064289500,1.21428955078125,0.06973457336425781,0.06369972229003906,-0.058947861194610596
1712257563074295300,1.22429541015625,-0.07123756408691406,0.04940152168273926,-0.04597795009613037
1712257563084301000,1.234301025390625,-0.15405654907226562,0.013783693313598633,-0.026409775018692017
1712257563094306800,1.244306884765625,-0.15616607666015625,-0.0050542354583740234,0.013565421104431152
1712257563104312600,1.2543125,-0.08812808990478516,-0.017501115798950195,0.04577893018722534
1712257563114318300,1.264318359375,-0.011954307556152344,-0.020145416259765625,0.01404765248298645
1712257563124324000,1.274323974609375,0.039475440979003906,-0.004223823547363281,-0.030437707901000977
1712257563134329900,1.284329833984375,0.09503841400146484,0.029467105865478516,-0.12202717363834381
1712257563144335400,1.29433544921875,0.107574462890625,0.05720710754394531,-0.15261001884937286
1712257563154341000,1.304341064453125,0.06838035583496094,0.08861088752746582,-0.1522413045167923
1712257563164347000,1.314346923828125,0.06765365600585938,0.07682943344116211,-0.1628633737564087
1712257563174352600,1.3243525390625,0.04353141784667969,0.05553936958312988,-0.1368815004825592
1712257563184358400,1.3343583984375,0.010487556457519531,0.03912353515625,-0.1263071447610855
1712257563194364200,1.3443642578125,0.0062103271484375,0.041918277740478516,-0.0733661949634552
1712257563204370000,1.354369873046875,0.025529861450195312,0.04936504364013672,-0.04897454380989075
1712257563214375700,1.364375732421875,0.04463386535644531,0.04216194152832031,-0.01962915062904358
1712257563224381400,1.37438134765625,0.0683889389038086,0.005932331085205078,0.047578781843185425
1712257563234387000,1.384386962890625,0.09218025207519531,-0.01696157455444336,0.07164165377616882
1712257563244392700,1.394392822265625,0.045246124267578125,-0.02153158187866211,0.043178290128707886
1712257563254398500,1.4043984375,-0.05755043029785156,0.02154850959777832,0.019634872674942017
1712257563264404200,1.414404296875,-0.13088512420654297,0.02781057357788086,0.0013230741024017334
1712257563274410000,1.424409912109375,-0.0999603271484375,0.04044532775878906,-0.01217004656791687
1712257563284415700,1.434415771484375,-0.03695869445800781,0.04924464225769043,-0.006045311689376831
1712257563294421500,1.44442138671875,-0.05529212951660156,0.07732486724853516,0.029473960399627686
1712257563304427300,1.45442724609375,-0.08288192749023438,0.04855179786682129,0.06228417158126831
1712257563314432800,1.464432861328125,-0.034699440002441406,0.005886077880859375,0.09240645170211792
1712257563324438500,1.4744384765625,0.05998992919921875,0.0009367465972900391,0.07465404272079468
1712257563334444300,1.4844443359375,0.17245197296142578,0.03255724906921387,0.016124963760375977
1712257563344450000,1.494449951171875,0.15193462371826172,0.05245471000671387,-0.054875314235687256
1712257563354455800,1.504455810546875,0.05695343017578125,0.0612950325012207,-0.08020314574241638
1712257563364461600,1.514461669921875,0.0012645721435546875,0.08897852897644043,-0.11646857857704163
1712257563374467300,1.52446728515625,-0.002132415771484375,0.0797874927520752,-0.09007126092910767
1712257563384473000,1.53447314453125,0.05066108703613281,0.06670236587524414,-0.02272072434425354
1712257563394478600,1.544478515625,0.09778499603271484,0.020665645599365234,-0.04252368211746216
1712257563404484400,1.554484375,0.13952159881591797,0.026717424392700195,-0.08919686079025269
1712257563414490000,1.564489990234375,0.2093353271484375,0.021804094314575195,-0.09388667345046997
1712257563424495900,1.574495849609375,0.17984485626220703,-0.017948150634765625,-0.09137111902236938
1712257563434501600,1.584501708984375,0.043190956115722656,-0.016334056854248047,-0.06277409195899963
1712257563444507400,1.59450732421875,-0.06263256072998047,-0.010736942291259766,-0.0642799437046051
1712257563454513200,1.60451318359375,-0.18098068237304688,0.0377500057220459,-0.08978849649429321
1712257563464519000,1.614518798828125,-0.2413492202758789,0.0728151798248291,-0.10982701182365417
1712257563474524700,1.624524658203125,-0.21645832061767578,0.06632280349731445,-0.0813605785369873
1712257563484530200,1.6345302734375,-0.15960693359375,0.037956953048706055,-0.028191208839416504
1712257563494536000,1.644535888671875,-0.09946918487548828,0.011212348937988281,0.016730189323425293
1712257563504541700,1.654541748046875,-0.05959796905517578,-0.06120753288269043,0.039708465337753296
1712257563514547500,1.66454736328125,-0.011239051818847656,-0.07533907890319824,0.0967964231967926
1712257563524553200,1.67455322265625,0.02676677703857422,-0.06532406806945801,0.1295517086982727
1712257563534559000,1.68455908203125,-0.0019102096557617188,-0.022138595581054688,0.1194806694984436
1712257563544564700,1.694564697265625,-0.049254417419433594,0.04474592208862305,0.04878950119018555
1712257563554570500,1.704570556640625,-0.030129432678222656,0.09245920181274414,0.026003330945968628
1712257563564576300,1.714576171875,0.06412601470947266,0.11554574966430664,-0.0014375150203704834
1712257563574582300,1.724582275390625,0.1195993423461914,0.12277054786682129,-0.08985978364944458
1712257563584588000,1.734588134765625,0.09951019287109375,0.11382913589477539,-0.10751479864120483
1712257563594593800,1.74459375,0.04266834259033203,0.056505680084228516,-0.09403529763221741
1712257563604599600,1.754599609375,-0.01766681671142578,-0.0005421638488769531,0.003158658742904663
1712257563614605300,1.764605224609375,-0.08651065826416016,-0.032927751541137695,0.07136169075965881
1712257563624611000,1.774611083984375,-0.1404733657836914,-0.02614879608154297,0.06472140550613403
1712257563634616800,1.784616943359375,-0.11395835876464844,-0.032444000244140625,0.022153258323669434
1712257563644622600,1.79462255859375,-0.10239791870117188,-0.032859086990356445,0.018615037202835083
1712257563654628400,1.80462841796875,-0.10555171966552734,-0.013278484344482422,-0.02701359987258911
1712257563664634000,1.814634033203125,-0.08083343505859375,0.054337263107299805,-0.08584502339363098
1712257563674640000,1.824639892578125,-0.023741722106933594,0.06965088844299316,-0.10664641857147217
1712257563684645600,1.834645751953125,0.06085777282714844,0.03706502914428711,-0.033417850732803345
1712257563694651600,1.844651611328125,0.1018838882446289,0.03730273246765137,-0.008234947919845581
1712257563704657400,1.854657470703125,0.07164955139160156,0.056268930435180664,-0.030915945768356323
1712257563714663200,1.8646630859375,0.10305976867675781,0.09883952140808105,-0.04968363046646118
1712257563724669000,1.8746689453125,0.18129253387451172,0.10713982582092285,-0.0882444977760315
1712257563734674700,1.8846748046875,0.20220184326171875,0.08106064796447754,-0.04261508584022522
1712257563744680400,1.894680419921875,0.1102752685546875,0.03029799461364746,0.021250605583190918
1712257563754686200,1.904686279296875,-0.008093833923339844,0.0029404163360595703,0.03807517886161804
1712257563764692000,1.91469189453125,-0.06780815124511719,-0.0009908676147460938,-0.0015898346900939941
1712257563774697700,1.92469775390625,-0.08413982391357422,-0.023666858673095703,-0.04566112160682678
1712257563784703500,1.934703369140625,-0.09085845947265625,0.0014295578002929688,0.009393692016601562
1712257563794709200,1.944709228515625,-0.11646175384521484,0.012462615966796875,0.05417996644973755
1712257563804715000,1.954715087890625,-0.1230316162109375,0.0050792694091796875,0.0281771719455719
1712257563814721000,1.964720947265625,-0.1343984603881836,0.007744550704956055,0.01728641986846924
1712257563824726800,1.974726806640625,-0.1743021011352539,0.016413450241088867,0.02590203285217285
1712257563834732300,1.984732177734375,-0.228546142578125,0.013210296630859375,-0.039495497941970825
1712257563844738000,1.994738037109375,-0.22632694244384766,0.007889986038208008,-0.08782291412353516
1712257563854743800,2.004743896484375,-0.14954471588134766,0.0047168731689453125,-0.07783466577529907
1712257563864749600,2.01474951171875,0.005820274353027344,0.05390763282775879,-0.081749826669693
1712257563874755300,2.02475537109375,0.26265621185302734,0.11043739318847656,-0.02533099055290222
1712257563884761000,2.034760986328125,0.4315948486328125,0.12530875205993652,0.022966653108596802
1712257563894766800,2.044766845703125,0.4014434814453125,0.09825682640075684,-0.008006125688552856
1712257563904772600,2.054772705078125,0.24585533142089844,0.05441713333129883,-0.013375908136367798
1712257563914778400,2.0647783203125,0.05566215515136719,0.01015162467956543,0.036246806383132935
1712257563924783900,2.074783935546875,-0.0940093994140625,0.019290685653686523,0.024484068155288696
1712257563934789600,2.08478955078125,-0.21851348876953125,0.01640772819519043,-0.003502786159515381
1712257563944795400,2.09479541015625,-0.26682090759277344,0.002688884735107422,-0.023772090673446655
1712257563954801200,2.10480126953125,-0.21161651611328125,-0.017956256866455078,-0.003592073917388916
1712257563964807000,2.114806884765625,-0.06811046600341797,-0.02846503257751465,0.023305743932724
1712257563974812700,2.124812744140625,0.01685619354248047,-0.006834983825683594,-0.0494823157787323
1712257563984818400,2.134818359375,0.03500843048095703,0.02729511260986328,-0.08066636323928833
1712257563994824200,2.14482421875,0.029715538024902344,0.05518007278442383,-0.04223284125328064
1712257564004829700,2.15482958984375,0.00107574462890625,0.08240008354187012,-0.0005780458450317383
1712257564014835500,2.16483544921875,-0.060237884521484375,0.0627598762512207,-0.03570401668548584
1712257564024841200,2.17484130859375,-0.05494117736816406,0.02559947967529297,-0.07021230459213257
1712257564034847000,2.184846923828125,0.030107498168945312,0.022604703903198242,-0.023903727531433105
1712257564044852700,2.194852783203125,0.09476470947265625,0.052982330322265625,0.03144213557243347
1712257564054858500,2.2048583984375,0.10168647766113281,0.05496478080749512,0.034755825996398926
1712257564064864300,2.2148642578125,0.09908485412597656,0.04740452766418457,0.01963561773300171
1712257564074870000,2.2248701171875,0.12038230895996094,0.08136558532714844,0.02863621711730957
1712257564084875500,2.23487548828125,0.12279605865478516,0.07629990577697754,0.008420199155807495
1712257564094881300,2.24488134765625,0.054676055908203125,0.057085514068603516,-0.055825889110565186
1712257564104887000,2.254886962890625,-0.054650306701660156,0.05734848976135254,-0.15009158849716187
1712257564114892800,2.264892822265625,-0.15279293060302734,0.05816054344177246,-0.16521963477134705
1712257564124898600,2.274898681640625,-0.18834495544433594,0.026827335357666016,-0.06738141179084778
1712257564134904300,2.284904296875,-0.2662696838378906,-0.0162351131439209,-0.08005592226982117
1712257564144910000,2.29491015625,-0.2069540023803711,-0.042688846588134766,-0.007206380367279053
1712257564154915800,2.304915771484375,-0.11128520965576172,-0.04920387268066406,0.005403280258178711
1712257564164921600,2.314921630859375,0.020570755004882812,-0.014034748077392578,0.03018587827682495
1712257564174927000,2.324927001953125,0.06586170196533203,0.00963902473449707,0.08482670783996582
1712257564184932900,2.334932861328125,0.07795429229736328,0.016887187957763672,0.13128900527954102
1712257564194938600,2.344938720703125,0.04793548583984375,0.017703533172607422,0.07920324802398682
1712257564204944400,2.3549443359375,0.013951301574707031,0.03184962272644043,0.009444832801818848
1712257564214950100,2.3649501953125,-0.024309158325195312,0.0839235782623291,-0.007877826690673828
1712257564224956000,2.374955810546875,-0.0716562271118164,0.0655984878540039,-0.03533869981765747
1712257564234961700,2.384961669921875,-0.1139535903930664,0.006587028503417969,-0.04841098189353943
1712257564244967400,2.394967529296875,-0.11354255676269531,-0.01747608184814453,-0.05573984980583191
1712257564254973000,2.404972900390625,-0.03354358673095703,0.05421781539916992,-0.01936161518096924
1712257564264978700,2.414978759765625,0.11546993255615234,0.11625242233276367,-0.04061618447303772
1712257564274984400,2.424984375,0.21044158935546875,0.08259987831115723,-0.06762653589248657
1712257564284990200,2.434990234375,0.22929668426513672,0.04256606101989746,-0.02482864260673523
1712257564294996000,2.444995849609375,0.1734457015991211,0.0002722740173339844,0.03161138296127319
1712257564305001700,2.455001708984375,0.053200721740722656,-0.001018524169921875,0.07929205894470215
1712257564315007500,2.465007568359375,-0.12178421020507812,0.0030546188354492188,0.02791234850883484
1712257564325013200,2.47501318359375,-0.24753093719482422,0.014208316802978516,-0.08444499969482422
1712257564335018800,2.485018798828125,-0.25889110565185547,0.05102396011352539,-0.08734479546546936
1712257564345024500,2.4950244140625,-0.14793968200683594,0.01282048225402832,-0.03371936082839966
1712257564355030300,2.5050302734375,-0.07175254821777344,-0.053060293197631836,0.07509645819664001
1712257564365036000,2.5150361328125,-0.1050262451171875,-0.08509373664855957,0.14845195412635803
1712257564375041800,2.525041748046875,-0.2275218963623047,-0.07799172401428223,0.11257463693618774
1712257564385047600,2.535047607421875,-0.2498617172241211,0.0017430782318115234,0.08356595039367676
1712257564395053300,2.54505322265625,-0.10284614562988281,0.09088850021362305,0.019321143627166748
1712257564405059000,2.55505908203125,0.13594436645507812,0.14519262313842773,-0.10346657037734985
1712257564415064600,2.565064697265625,0.28203392028808594,0.1775500774383545,-0.1257733404636383
1712257564425070300,2.5750703125,0.3419990539550781,0.13112473487854004,-0.08422893285751343
1712257564435076000,2.585076171875,0.3407449722290039,0.08753514289855957,-0.06495702266693115
1712257564445081900,2.595081787109375,0.26484203338623047,0.07596421241760254,-0.05326789617538452
1712257564455087600,2.605087646484375,0.16692829132080078,0.10156726837158203,-0.05207619071006775
1712257564465093400,2.61509326171875,0.10838603973388672,0.07476282119750977,-0.0369410514831543
1712257564475099100,2.62509912109375,0.055504798889160156,0.02956533432006836,-0.016827523708343506
1712257564485105000,2.63510498046875,0.02216815948486328,0.013548612594604492,0.023974567651748657
1712257564495110700,2.645110595703125,-0.043735504150390625,0.0073969364166259766,0.004846364259719849
1712257564505116200,2.6551162109375,-0.13706111907958984,0.006749391555786133,-0.036653488874435425
1712257564515122000,2.665121826171875,-0.1869068145751953,0.0027742385864257812,-0.06310808658599854
1712257564525127700,2.675127685546875,-0.20813274383544922,0.00034308433532714844,-0.08935010433197021
1712257564535133400,2.685133544921875,-0.19649696350097656,-0.005362272262573242,-0.0727076530456543
1712257564545139200,2.69513916015625,-0.06746387481689453,-0.0011584758758544922,-0.013996809720993042
1712257564555145000,2.70514501953125,0.08336067199707031,0.0018546581268310547,0.038297832012176514
1712257564565150700,2.715150634765625,0.1098337173461914,0.026759862899780273,0.022418826818466187
1712257564575156500,2.725156494140625,0.07047557830810547,0.06391358375549316,0.0009526908397674561
1712257564585162000,2.735161865234375,0.06975269317626953,0.07594895362854004,0.05512240529060364
1712257564595167700,2.745167724609375,0.08333110809326172,0.07788562774658203,0.051724761724472046
1712257564605173500,2.755173583984375,0.06372928619384766,0.05636096000671387,0.019349873065948486
1712257564615179300,2.76517919921875,0.016031265258789062,0.045130014419555664,0.04415416717529297
1712257564625185000,2.77518505859375,-0.0171356201171875,0.03988075256347656,0.09284204244613647
1712257564635190800,2.785190673828125,-0.07859611511230469,0.01284027099609375,0.08061861991882324
1712257564645196500,2.795196533203125,-0.09716033935546875,-0.021812915802001953,0.06519532203674316
1712257564655202300,2.805202392578125,-0.05451393127441406,-0.0033407211303710938,0.013629794120788574
1712257564665207800,2.815207763671875,-0.08327960968017578,0.033849239349365234,-0.01801401376724243
1712257564675213600,2.825213623046875,-0.12567996978759766,0.06090950965881348,-0.04406049847602844
1712257564685219300,2.83521923828125,-0.13438987731933594,0.04045867919921875,-0.09847447276115417
1712257564695225000,2.84522509765625,-0.1098642349243164,0.024995803833007812,-0.09746536612510681
1712257564705230800,2.85523095703125,-0.07606792449951172,0.013915061950683594,-0.046084076166152954
1712257564715236600,2.865236572265625,-0.018991470336914062,-0.021325111389160156,-0.04814288020133972
1712257564725242400,2.875242431640625,0.013710975646972656,-0.014014482498168945,-0.04052665829658508
1712257564735248100,2.885248046875,-0.015509605407714844,0.03123617172241211,-0.05108639597892761
1712257564745254000,2.89525390625,-0.03522300720214844,0.0578913688659668,-0.06466993689537048
1712257564755259400,2.90525927734375,-0.008012771606445312,0.06646227836608887,-0.07595986127853394
1712257564765265200,2.91526513671875,0.07483386993408203,0.08078360557556152,-0.07688897848129272
1712257564775271200,2.925271240234375,0.13272953033447266,0.07142853736877441,-0.08254072070121765
1712257564785277000,2.93527685546875,0.1380615234375,0.06645393371582031,-0.07939842343330383
1712257564795282700,2.94528271484375,0.14838886260986328,0.0558772087097168,-0.07280957698822021
1712257564805288400,2.955288330078125,0.12130069732666016,0.044302940368652344,-0.034384340047836304
1712257564815294200,2.965294189453125,0.09981155395507812,0.03632640838623047,0.01699236035346985
1712257564825300000,2.975300048828125,0.03197669982910156,0.03196883201599121,0.04402032494544983
1712257564835305700,2.9853056640625,-0.08159637451171875,0.017655372619628906,-0.0052068233489990234
1712257564845311500,2.9953115234375,-0.16042613983154297,-0.0055310726165771484,-0.015711069107055664
1712257564855317200,3.005317138671875,-0.1534748077392578,-0.008693933486938477,0.021740615367889404
1712257564865323000,3.015322998046875,-0.1705780029296875,-0.0011906623840332031,0.04013305902481079
1712257564875328800,3.025328857421875,-0.22082901000976562,0.0029799938201904297,0.0441359281539917
1712257564885334500,3.03533447265625,-0.19078540802001953,-0.005243539810180664,0.015615999698638916
1712257564895340500,3.045340576171875,-0.07692909240722656,0.044606924057006836,-0.026596248149871826
1712257564905346300,3.05534619140625,0.00652313232421875,0.1181185245513916,-0.09701710939407349
1712257564915352000,3.06535205078125,-0.02459716796875,0.1441819667816162,-0.14903530478477478
1712257564925357800,3.07535791015625,-0.08389472961425781,0.13862037658691406,-0.23967918753623962
1712257564935363600,3.085363525390625,-0.2937335968017578,0.09404301643371582,-0.2655216455459595
1712257564945369300,3.095369384765625,-0.4875001907348633,0.013092279434204102,-0.05622246861457825
1712257564955375000,3.105375,-0.46810245513916016,-0.060469865798950195,0.09602832794189453
1712257564965380900,3.115380859375,-0.2764606475830078,-0.08071517944335938,0.2781183123588562
1712257564975386600,3.12538671875,0.5851469039916992,0.006886005401611328,1.0457366704940796
1712257564985392400,3.135392333984375,1.0251245498657227,0.1208353042602539,0.2816801071166992
1712257564995398100,3.145398193359375,0.7496538162231445,0.07399439811706543,-0.7032649517059326
1712257565005404000,3.15540380859375,0.45773983001708984,0.01724839210510254,-0.7960413694381714
1712257565015410000,3.165409912109375,0.19619274139404297,-0.0011415481567382812,-0.30888527631759644
1712257565025415700,3.175415771484375,0.04856586456298828,0.019253015518188477,-0.011154919862747192
1712257565035421400,3.18542138671875,-0.03964710235595703,0.05586838722229004,0.16831350326538086
1712257565045427200,3.19542724609375,-0.14086151123046875,0.1579737663269043,0.294009804725647
1712257565055433000,3.205432861328125,-0.14708518981933594,0.12371110916137695,0.2917732000350952
1712257565065438700,3.215438720703125,-0.14945125579833984,0.026132583618164062,0.31040066480636597
1712257565075444500,3.225444580078125,-0.195037841796875,-0.03922557830810547,0.261856347322464
1712257565085450200,3.2354501953125,-0.22178077697753906,-0.06785297393798828,0.08185181021690369
1712257565095456000,3.2454560546875,-0.2910337448120117,-0.03695178031921387,-0.05105060338973999
1712257565105461800,3.255461669921875,-0.35512733459472656,-0.013057470321655273,-0.06672003865242004
1712257565115467500,3.265467529296875,-0.2917652130126953,0.018251657485961914,-0.07090693712234497
1712257565125473300,3.275473388671875,-0.08388042449951172,0.03212714195251465,-0.12042957544326782
1712257565135479000,3.28547900390625,0.07353973388671875,0.007937192916870117,-0.06590405106544495
1712257565145484800,3.29548486328125,0.13944053649902344,0.04795980453491211,0.012476146221160889
1712257565155490600,3.305490478515625,0.18629169464111328,0.0793004035949707,0.011048853397369385
1712257565165496300,3.315496337890625,0.13432025909423828,0.05058908462524414,0.029117703437805176
1712257565175502000,3.325502197265625,0.03648948669433594,0.05415749549865723,0.0227738618850708
1712257565185507800,3.3355078125,-0.022264480590820312,0.030541419982910156,0.042799413204193115
1712257565195513300,3.345513427734375,-0.04289054870605469,-0.052057504653930664,0.1661880910396576
1712257565205519000,3.35551904296875,-0.2807903289794922,0.021012544631958008,-0.02301621437072754
1712257565215524900,3.36552490234375,-0.3750038146972656,0.08010673522949219,-0.23573501408100128
1712257565225530600,3.375530517578125,-0.3516273498535156,0.007974624633789062,-0.11584711074829102
1712257565235536400,3.385536376953125,-0.3017416000366211,0.05012822151184082,-0.09467706084251404
1712257565245542100,3.395542236328125,-0.19256210327148438,0.1757972240447998,-0.16709738969802856
1712257565255548000,3.4055478515625,0.1356372833251953,0.23638558387756348,-0.3747232258319855
1712257565265553700,3.4155537109375,0.26100730895996094,0.1884629726409912,-0.551581084728241
1712257565275559200,3.42555908203125,0.14981746673583984,0.3774590492248535,-0.26394784450531006
1712257565285565000,3.43556494140625,0.20766067504882812,0.08646845817565918,-0.3289792239665985
1712257565295570700,3.44557080078125,0.43692779541015625,-0.22930407524108887,-0.08360925316810608
1712257565305576400,3.455576416015625,0.485809326171875,-0.34418487548828125,0.28123658895492554
1712257565315582200,3.465582275390625,0.040630340576171875,-0.14058136940002441,0.23553365468978882
1712257565325588000,3.475587890625,-0.5107021331787109,0.09859514236450195,0.08296573162078857
1712257565335593700,3.48559375,-0.8569936752319336,0.09084534645080566,0.06953302025794983
1712257565345599500,3.495599609375,-0.8750495910644531,-0.05372476577758789,0.06407737731933594
1712257565355605000,3.50560498046875,-0.7254552841186523,-0.1036384105682373,0.10238200426101685
1712257565365610800,3.51561083984375,-0.32065677642822266,-0.05464506149291992,0.1519697904586792
1712257565375616500,3.525616455078125,0.31299591064453125,0.01613306999206543,0.22262808680534363
1712257565385622300,3.535622314453125,0.6832923889160156,0.00017571449279785156,0.2253081202507019
1712257565395628000,3.5456279296875,0.8328523635864258,0.0051953792572021484,0.20114895701408386
1712257565405633800,3.5556337890625,0.7605161666870117,0.08318662643432617,0.187275230884552
1712257565415639600,3.5656396484375,0.6908712387084961,0.11199283599853516,0.09952390193939209
1712257565425645300,3.575645263671875,0.5811548233032227,0.1691911220550537,-0.018548011779785156
1712257565435651000,3.585651123046875,0.49767589569091797,0.2694413661956787,-0.0948561429977417
1712257565445656600,3.595656494140625,0.4680948257446289,0.28990602493286133,-0.1377323567867279
1712257565455662300,3.605662353515625,0.5954198837280273,0.18396353721618652,-0.18259993195533752
1712257565465668000,3.615668212890625,0.623387336730957,-0.011128425598144531,0.02513068914413452
1712257565475673900,3.625673828125,0.5397472381591797,-0.1491537094116211,0.2857813835144043
1712257565485679600,3.6356796875,0.2847614288330078,-0.16357827186584473,0.3122807741165161
1712257565495685400,3.645685302734375,0.1620187759399414,-0.11049604415893555,0.2694685459136963
1712257565505691100,3.655691162109375,0.09852123260498047,-0.027760982513427734,0.15309303998947144
1712257565515697000,3.66569677734375,0.1261892318725586,0.028383255004882812,-0.018670976161956787
1712257565525702400,3.675702392578125,0.7107448577880859,0.0649106502532959,-0.07087087631225586
1712257565535708200,3.685708251953125,1.1242952346801758,0.08551645278930664,-0.12923717498779297
1712257565545714000,3.6957138671875,1.4934825897216797,0.08623290061950684,-0.07072603702545166
1712257565555719700,3.7057197265625,1.7737483978271484,0.06836318969726562,-0.08085435628890991
1712257565565725400,3.715725341796875,1.5669193267822266,0.08349227905273438,-0.145879328250885
1712257565575731200,3.725731201171875,1.6288423538208008,0.10106801986694336,0.09591811895370483
1712257565585737000,3.735737060546875,1.9281768798828125,0.052396535873413086,0.47350233793258667
1712257565595742700,3.74574267578125,1.6186285018920898,-0.0543673038482666,0.7317026853561401
1712257565605748200,3.755748291015625,1.1003761291503906,-0.07770371437072754,0.7679410576820374
1712257565615754000,3.76575390625,1.0831050872802734,-0.05296611785888672,0.6139983534812927
1712257565625759700,3.775759765625,1.043848991394043,0.0696573257446289,0.41998744010925293
1712257565635765500,3.785765625,1.3990345001220703,0.20753931999206543,0.033064842224121094
1712257565645771300,3.795771240234375,0.6637659072875977,-0.0785074234008789,-0.17275160551071167
1712257565655777000,3.805777099609375,-0.1203775405883789,-0.2585477828979492,-0.07008665800094604
1712257565665782800,3.81578271484375,-0.1432781219482422,-0.004082679748535156,-0.5025449991226196
1712257565675788500,3.82578857421875,-0.22546863555908203,-0.12484216690063477,-0.45394474267959595
1712257565685794300,3.835794189453125,-0.3322572708129883,-0.47711658477783203,-0.22200363874435425
1712257565695799800,3.8457998046875,-0.010348320007324219,-0.35791540145874023,-0.013346076011657715
1712257565705805600,3.8558056640625,0.3259410858154297,-0.3514585494995117,0.0978010892868042
1712257565715811300,3.865811279296875,1.067805290222168,-0.7169780731201172,0.33105289936065674
1712257565725817000,3.875817138671875,1.78656005859375,-1.0505719184875488,0.9668874740600586
1712257565735822800,3.88582275390625,1.9936389923095703,-1.160153865814209,-0.7809587717056274
1712257565745828600,3.89582861328125,0.8275384902954102,-0.8682026863098145,-0.7222554683685303
1712257565755834400,3.90583447265625,-0.03495216369628906,-0.5377669334411621,-0.2875799536705017
1712257565765840100,3.915840087890625,-0.3510746955871582,-0.5361928939819336,-0.16410303115844727
1712257565775846000,3.925845947265625,0.07371330261230469,-0.19005346298217773,-0.007812142372131348
1712257565785851600,3.9358515625,-0.06739425659179688,-0.23412847518920898,-0.13471412658691406
1712257565795857400,3.945857421875,0.15126848220825195,-0.3129420280456543,-0.8946882486343384
1712257565805863200,3.95586328125,-0.1731719970703125,-0.3595442771911621,-0.8572757244110107
1712257565815869000,3.965868896484375,-0.7145094871520996,-0.526975154876709,-0.2889220714569092
1712257565825874700,3.975874755859375,-1.2023682594299316,-0.8803486824035645,-0.13339102268218994
1712257565835880400,3.98588037109375,-1.3990139961242676,-1.086212158203125,-0.098419189453125
1712257565845886200,3.99588623046875,-1.3012733459472656,-1.0030298233032227,-0.15693950653076172
1712257565855892000,4.00589208984375,-0.7765688896179199,-0.8090262413024902,-0.288513720035553
1712257565865897700,4.015897705078125,-0.037798404693603516,-0.559654712677002,-0.26999711990356445
1712257565875903500,4.025903564453125,0.10815763473510742,-0.39871692657470703,-0.11884403228759766
1712257565885909500,4.035909423828125,-0.29445743560791016,-0.7079181671142578,-0.17698705196380615
1712257565895915300,4.045915283203125,-0.6218752861022949,-0.8764667510986328,-0.08146655559539795
1712257565905921000,4.055921142578125,-0.9210867881774902,-0.7917995452880859,0.013584375381469727
1712257565915926800,4.0659267578125,-1.0575346946716309,-0.8869009017944336,-0.024056673049926758
1712257565925932500,4.0759326171875,-0.2307877540588379,-0.3989596366882324,-0.29474514722824097
1712257565935938300,4.085938232421875,0.31687211990356445,-0.4175896644592285,-0.24471056461334229
1712257565945944000,4.095944091796875,0.28127098083496094,-0.6459832191467285,-0.16922330856323242
1712257565955949800,4.10594970703125,0.25559234619140625,-0.7063069343566895,-0.03064906597137451
1712257565965955600,4.11595556640625,0.3370966911315918,-0.652677059173584,0.14484143257141113
1712257565975961300,4.12596142578125,0.2751030921936035,-0.8967251777648926,0.1192549467086792
1712257565985967000,4.135967041015625,-0.10428285598754883,-0.8435196876525879,0.10261416435241699
1712257565995972900,4.145972900390625,-0.7911770343780518,-0.9691872596740723,0.1964893341064453
1712257566005979000,4.155978759765625,-1.5416584014892578,-1.283195972442627,0.18472421169281006
1712257566015984600,4.165984619140625,-1.5599901676177979,-0.8697137832641602,-0.10307538509368896
1712257566025990400,4.175990478515625,-1.2096352577209473,-0.4532480239868164,-0.0749284029006958
1712257566035996200,4.18599609375,-0.5566394329071045,-0.3670082092285156,-0.01771104335784912
1712257566046002000,4.196001953125,-0.12102270126342773,-0.4884300231933594,-0.20272332429885864
1712257566056007700,4.206007568359375,-0.49080419540405273,-0.4622058868408203,-0.5476794838905334
1712257566066013400,4.216013427734375,-1.1744375228881836,-0.29552459716796875,-0.6005975008010864
1712257566076019200,4.226019287109375,-1.773231029510498,-0.12018966674804688,-0.5902237892150879
1712257566086025000,4.23602490234375,-1.930309772491455,-0.0113525390625,-0.5065431594848633
1712257566096030700,4.24603076171875,-1.590367317199707,0.1643238067626953,-0.31019431352615356
1712257566106036500,4.256036376953125,-1.2616417407989502,0.15554332733154297,0.13066798448562622
1712257566116042200,4.266042236328125,-1.1009047031402588,0.12217521667480469,0.3599342107772827
1712257566126048300,4.27604833984375,-0.682607889175415,0.024474143981933594,0.19546717405319214
1712257566136054000,4.286053955078125,-0.5752325057983398,-0.12440776824951172,0.020521044731140137
1712257566146059800,4.296059814453125,-0.5402848720550537,-0.17241573333740234,-0.16315621137619019
1712257566156065500,4.3060654296875,-0.615652322769165,-0.20066070556640625,-0.4026147723197937
1712257566166071300,4.3160712890625,-0.6176819801330566,-0.26081371307373047,-0.3393111824989319
1712257566176077000,4.3260771484375,-0.5383288860321045,-0.44826698303222656,-0.1325223445892334
1712257566186082800,4.336082763671875,-0.5596776008605957,-0.5716238021850586,-0.2018216848373413
1712257566196088600,4.346088623046875,-0.3839879035949707,-0.6885623931884766,-0.16706401109695435
1712257566206094300,4.35609423828125,-0.17589259147644043,-0.7093286514282227,-0.09085971117019653
1712257566216100000,4.36610009765625,-0.19117355346679688,-0.5919885635375977,0.008383452892303467
1712257566226105900,4.37610595703125,-0.29578685760498047,-0.45145225524902344,-0.026918351650238037
1712257566236111400,4.386111328125,-0.5007600784301758,-0.3827486038208008,-0.010082364082336426
1712257566246117000,4.3961171875,-0.6213691234588623,-0.27999019622802734,-0.10871285200119019
1712257566256123000,4.406122802734375,-0.5528740882873535,-0.22913837432861328,-0.1703733205795288
1712257566266128000,4.4161279296875,-0.31842947006225586,-0.2064342498779297,-0.25431138277053833
1712257566276133600,4.426133544921875,-0.14136552810668945,-0.10724925994873047,-0.2125362753868103
1712257566286139400,4.436139404296875,-0.06430768966674805,-0.06577205657958984,-0.02878957986831665
1712257566296145700,4.446145751953125,-0.02572011947631836,-0.13416481018066406,0.024769723415374756
1712257566306151400,4.4561513671875,0.009032487869262695,-0.13097667694091797,0.019523203372955322
1712257566316157200,4.4661572265625,-0.17478632926940918,-0.1329784393310547,0.03331714868545532
1712257566326163000,4.476162841796875,-0.2967956066131592,-0.21114158630371094,-0.034055233001708984
1712257566336168700,4.486168701171875,-0.09927654266357422,-0.10731887817382812,-0.044035494327545166
1712257566346174500,4.496174560546875,0.10263299942016602,-0.07539844512939453,-0.030495047569274902
1712257566356180000,4.506179931640625,0.09018230438232422,-0.13467788696289062,-0.07429361343383789
1712257566366185700,4.516185791015625,-0.09434199333190918,-0.12210559844970703,-0.07017415761947632
1712257566376191500,4.52619140625,-0.1895735263824463,-0.12808609008789062,-0.03628355264663696
1712257566386197200,4.536197265625,-0.40123462677001953,-0.14299678802490234,-0.14436942338943481
1712257566396203000,4.546203125,-0.42940306663513184,-0.14234638214111328,-0.20466548204421997
1712257566406208800,4.556208740234375,-0.12967228889465332,-0.12670040130615234,-0.10754352807998657
1712257566416214500,4.566214599609375,0.036241769790649414,-0.11612606048583984,-0.00047528743743896484
1712257566426220300,4.57622021484375,0.036193132400512695,-0.067840576171875,-0.12387698888778687
1712257566436226000,4.58622607421875,0.09029793739318848,-0.04390430450439453,-0.2638954520225525
1712257566446231600,4.5962314453125,0.25660228729248047,-0.015916824340820312,-0.21030008792877197
1712257566456237300,4.6062373046875,0.3012573719024658,0.03967571258544922,-0.13374251127243042
1712257566466243000,4.6162431640625,0.13703322410583496,0.061163902282714844,-0.1190115213394165
1712257566476248800,4.626248779296875,-0.03216242790222168,0.020626068115234375,-0.07914131879806519
1712257566486254600,4.636254638671875,-0.14546728134155273,-0.009752273559570312,-0.022930502891540527
1712257566496260400,4.64626025390625,-0.3423027992248535,-0.09045696258544922,0.025412559509277344
1712257566506266000,4.65626611328125,-0.2425367832183838,-0.15918827056884766,0.04479861259460449
1712257566516271900,4.66627197265625,0.3646581172943115,-0.10439872741699219,0.17516708374023438
1712257566526277400,4.67627734375,0.5538077354431152,0.008291244506835938,0.2712114453315735
1712257566536283100,4.686283203125,0.4644813537597656,-0.08608245849609375,0.10759878158569336
1712257566546289000,4.696288818359375,0.1363356113433838,-0.08168601989746094,0.012730121612548828
1712257566556294700,4.706294677734375,-0.27069807052612305,-0.0586395263671875,-0.10922813415527344
1712257566566300400,4.716300537109375,-0.4482412338256836,-0.12415695190429688,-0.12161147594451904
1712257566576306200,4.72630615234375,-0.3534576892852783,-0.1542186737060547,-0.07768923044204712
1712257566586312000,4.73631201171875,-0.23946499824523926,-0.14518260955810547,-0.024056315422058105
1712257566596317700,4.746317626953125,-0.11092114448547363,-0.14031505584716797,0.08749580383300781
1712257566606323200,4.7563232421875,-0.11780881881713867,-0.055121421813964844,0.0958174467086792
1712257566616329000,4.766328857421875,-0.0925285816192627,-0.06522655487060547,0.05286085605621338
1712257566626334700,4.776334716796875,-0.05814862251281738,-0.05165863037109375,-0.04101353883743286
1712257566636340500,4.786340576171875,0.11397218704223633,0.008142471313476562,-0.15705335140228271
1712257566646346200,4.79634619140625,0.15892338752746582,0.009538650512695312,-0.19759684801101685
1712257566656352000,4.80635205078125,0.08785367012023926,-0.013341903686523438,-0.23525452613830566
1712257566666357800,4.816357666015625,0.13736486434936523,-0.059882164001464844,-0.13738703727722168
1712257566676363500,4.826363525390625,0.08415627479553223,-0.06851673126220703,-0.08475321531295776
1712257566686369300,4.836369384765625,-0.12267112731933594,-0.10076904296875,-0.07679373025894165
1712257566696374800,4.846374755859375,-0.2326498031616211,-0.12746143341064453,0.0060575008392333984
1712257566706380500,4.856380615234375,-0.2244129180908203,-0.1250600814819336,0.14062535762786865
1712257566716386300,4.86638623046875,-0.08525848388671875,-0.146087646484375,0.0534210205078125
1712257566726392000,4.87639208984375,0.14656352996826172,-0.07765007019042969,0.038881123065948486
1712257566736397800,4.886397705078125,0.40948486328125,0.24306011199951172,0.04004329442977905
1712257566746403600,4.896403564453125,0.35062384605407715,0.22774600982666016,-0.06665080785751343
1712257566756409300,4.906409423828125,0.025104999542236328,0.1417694091796875,-0.04430234432220459
1712257566766415000,4.9164150390625,-0.24442744255065918,0.076507568359375,-0.050364792346954346
1712257566776420900,4.9264208984375,-0.3615856170654297,-0.033690452575683594,-0.05188018083572388
1712257566786427000,4.936427001953125,-0.29549217224121094,-0.13181495666503906,0.0037937164306640625
1712257566796432600,4.9464326171875,-0.1800222396850586,-0.20429229736328125,0.035264432430267334
1712257566806438400,4.9564384765625,-0.18419623374938965,-0.2897176742553711,0.014841258525848389
1712257566816444200,4.966444091796875,-0.25951313972473145,-0.31235504150390625,-0.023198425769805908
1712257566826450000,4.976449951171875,-0.26436614990234375,-0.27286720275878906,-0.05125218629837036
1712257566836455700,4.98645556640625,-0.0865483283996582,-0.18642425537109375,-0.09949815273284912
1712257566846461400,4.99646142578125,-0.024018049240112305,-0.045162200927734375,-0.0010516643524169922
1712257566856467200,5.00646728515625,-0.027875185012817383,-0.03360176086425781,-0.059575557708740234
1712257566866473000,5.016472900390625,0.06325650215148926,0.03415393829345703,-0.095794677734375
1712257566876478700,5.026478759765625,0.08370280265808105,0.1474609375,-0.010875999927520752
1712257566886484500,5.036484375,0.1802525520324707,0.1266183853149414,0.129216730594635
1712257566896490200,5.046490234375,0.3007009029388428,0.1571340560913086,0.1970023512840271
1712257566906496300,5.056496337890625,0.18595600128173828,0.1155233383178711,0.17619788646697998
1712257566916502000,5.066501953125,0.16817879676818848,0.0741262435913086,0.09183692932128906
1712257566926507800,5.0765078125,-0.01834583282470703,0.051863670349121094,0.021249473094940186
1712257566936513500,5.086513427734375,-0.34522032737731934,0.0024232864379882812,-0.13590538501739502
1712257566946519300,5.096519287109375,-0.5623936653137207,-0.13878631591796875,-0.26772233843803406
1712257566956525000,5.106525146484375,-0.6820278167724609,-0.26628780364990234,-0.2619710862636566
1712257566966530800,5.11653076171875,-0.38911914825439453,-0.29126453399658203,-0.21531713008880615
1712257566976536600,5.12653662109375,-0.08255362510681152,-0.23562240600585938,-0.06634211540222168
1712257566986542300,5.136542236328125,-0.13287806510925293,-0.19549846649169922,-0.03328120708465576
1712257566996548000,5.146548095703125,-0.27123141288757324,-0.16089248657226562,-0.011274874210357666
1712257567006553900,5.156553955078125,-0.115478515625,-0.15498065948486328,0.004529476165771484
1712257567016559600,5.1665595703125,-0.022319793701171875,-0.03190422058105469,0.029524266719818115
1712257567026565600,5.176565673828125,-0.13306379318237305,-0.0051212310791015625,-0.025471508502960205
1712257567036571400,5.1865712890625,-0.2437906265258789,0.021944046020507812,-0.1035165786743164
1712257567046577200,5.1965771484375,-0.298814058303833,-0.011553764343261719,-0.1721404492855072
1712257567056583000,5.2065830078125,-0.265897274017334,-0.029291152954101562,-0.17097428441047668
1712257567066588700,5.216588623046875,-0.31563711166381836,-0.05055522918701172,-0.1097559928894043
1712257567076594400,5.226594482421875,-0.5983865261077881,-0.15027713775634766,-0.09675151109695435
1712257567086600200,5.23660009765625,-0.9577996730804443,-0.2742185592651367,-0.1452176570892334
1712257567096606000,5.24660595703125,-1.3159527778625488,-0.3735532760620117,-0.15026411414146423
1712257567106611700,5.25661181640625,-1.7701400518417358,-0.5509529113769531,-0.2684757709503174
1712257567116617500,5.266617431640625,-2.398728609085083,-0.6854896545410156,-0.27090445160865784
1712257567126623200,5.276623291015625,-3.0197460651397705,-0.8370027542114258,-0.3899247944355011
1712257567136629000,5.28662890625,-3.845411777496338,-1.0019164085388184,-0.44779524207115173
1712257567146635000,5.296635009765625,-4.3340277671813965,-1.2919068336486816,-0.37865087389945984
1712257567156640800,5.306640869140625,-4.17471981048584,-1.6951303482055664,-0.024403750896453857
1712257567166646500,5.316646484375,-3.8644957542419434,-1.4115257263183594,-0.687862753868103
1712257567176652300,5.32665234375,-3.584031581878662,-1.253891944885254,-1.380629301071167
1712257567186658000,5.336657958984375,-2.498499870300293,-1.523989200592041,-1.6533613204956055
1712257567196663800,5.346663818359375,-1.2851972579956055,-1.719289779663086,-1.1568224430084229
1712257567206669600,5.356669677734375,-0.777249813079834,-1.6475391387939453,-0.46350085735321045
1712257567216675300,5.36667529296875,-0.8507485389709473,-1.6397380828857422,-0.35008132457733154
1712257567226681000,5.37668115234375,-1.76176118850708,-2.4224562644958496,0.4411611557006836
1712257567236686600,5.3866865234375,-2.6958463191986084,-2.499171733856201,-0.18074053525924683
1712257567246692400,5.3966923828125,-3.254721164703369,-2.357266902923584,-0.06547236442565918
1712257567256698000,5.406697998046875,-2.7598376274108887,-2.5007729530334473,0.17251437902450562
1712257567266704000,5.416703857421875,-1.5769968032836914,-2.6764485836029053,0.16662806272506714
1712257567276709600,5.426709716796875,-0.05607032775878906,-2.6067185401916504,-0.044977009296417236
1712257567286715400,5.43671533203125,1.906074047088623,-2.2074947357177734,-0.4717071056365967
1712257567296721200,5.44672119140625,3.5470380783081055,-1.6089160442352295,-0.029688119888305664
1712257567306727000,5.456726806640625,4.44643497467041,-1.0013070106506348,0.6371560096740723
1712257567316732400,5.466732421875,4.954407691955566,-0.49286365509033203,0.8321276307106018
1712257567326738200,5.47673828125,5.015633583068848,-0.03783845901489258,0.7020511031150818
1712257567336744000,5.486743896484375,4.553073883056641,0.29158782958984375,0.49569272994995117
1712257567346749700,5.496749755859375,3.8859987258911133,0.4504532814025879,0.40453267097473145
1712257567356755500,5.50675537109375,3.075617790222168,0.4853086471557617,0.3985676169395447
1712257567366761200,5.51676123046875,2.4992856979370117,0.44707632064819336,0.4382780194282532
1712257567376767000,5.52676708984375,2.08597469329834,0.40352392196655273,0.7582477927207947
1712257567386772700,5.536772705078125,1.8232545852661133,0.4114370346069336,1.0321705341339111
1712257567396778500,5.546778564453125,1.6278877258300781,0.5073182582855225,0.8962019085884094
1712257567406784000,5.556783935546875,1.5232105255126953,0.6066558361053467,0.5836278200149536
1712257567416789800,5.566789794921875,1.7392759323120117,0.6750831604003906,0.5528194904327393
1712257567426795500,5.57679541015625,2.0675363540649414,0.7126955986022949,0.6246781349182129
1712257567436801300,5.58680126953125,2.2854042053222656,0.6379916667938232,0.37526610493659973
1712257567446807000,5.59680712890625,2.3561792373657227,0.5333766937255859,0.07496428489685059
1712257567456812800,5.606812744140625,2.332930564880371,0.48305177688598633,-0.20765821635723114
1712257567466818600,5.616818603515625,2.172530174255371,0.39070868492126465,-0.2796952724456787
1712257567476824300,5.62682421875,1.8268308639526367,0.27623939514160156,-0.3681166470050812
1712257567486829800,5.636829833984375,1.3956928253173828,0.14605069160461426,-0.2878158986568451
1712257567496835600,5.646835693359375,0.8493461608886719,0.15121912956237793,-0.1675775647163391
1712257567506841300,5.65684130859375,0.33969879150390625,0.06989884376525879,-0.01758599281311035
1712257567516847000,5.66684716796875,-0.13438701629638672,-0.06622815132141113,0.06829878687858582
1712257567526852900,5.676852783203125,-0.6604375839233398,-0.18112397193908691,0.034604281187057495
1712257567536858600,5.686858642578125,-0.9815864562988281,-0.2089519500732422,0.0008576810359954834
1712257567546864400,5.696864501953125,-1.1274938583374023,-0.14331769943237305,-0.04747125506401062
1712257567556870100,5.7068701171875,-1.108262062072754,-0.15093207359313965,0.048013389110565186
1712257567566875600,5.716875732421875,-0.7660770416259766,-0.12762856483459473,0.001544266939163208
1712257567576881400,5.72688134765625,-0.4109210968017578,-0.10066699981689453,-0.23082466423511505
1712257567586887200,5.73688720703125,-0.10384750366210938,-0.13062024116516113,-0.350305438041687
1712257567596893000,5.746892822265625,0.20392894744873047,-0.17734742164611816,-0.42634183168411255
1712257567606898700,5.756898681640625,0.3219795227050781,-0.23842620849609375,-0.3972958028316498
1712257567616904400,5.766904541015625,0.3079710006713867,-0.2183208465576172,-0.3563906252384186
1712257567626910200,5.77691015625,0.35758399963378906,-0.07316279411315918,-0.19414427876472473
1712257567636916000,5.786916015625,0.546879768371582,0.1538856029510498,0.11133059859275818
1712257567646921700,5.796921630859375,0.7560224533081055,0.3475825786590576,0.342579185962677
1712257567656927200,5.80692724609375,0.9993495941162109,0.4833395481109619,0.4005720317363739
1712257567666933000,5.81693310546875,1.1910505294799805,0.545928955078125,0.34599584341049194
1712257567676938800,5.826938720703125,1.2119569778442383,0.4777107238769531,0.27338382601737976
1712257567686944500,5.836944580078125,1.162867546081543,0.32178783416748047,0.22436946630477905
1712257567696950300,5.8469501953125,1.0199460983276367,0.15520691871643066,0.17023462057113647
1712257567706956000,5.8569560546875,0.8547630310058594,0.04100775718688965,0.17918473482131958
1712257567716961800,5.8669619140625,0.7244148254394531,0.0373082160949707,0.19921594858169556
1712257567726967800,5.8769677734375,0.5235013961791992,0.07299137115478516,0.2546936273574829
1712257567736973600,5.8869736328125,0.3044090270996094,0.13454651832580566,0.24702823162078857
1712257567746979300,5.896979248046875,0.0859384536743164,0.1750636100769043,0.283363401889801
1712257567756985000,5.906985107421875,-0.16582393646240234,0.11956977844238281,0.27506136894226074
1712257567766990800,5.916990966796875,-0.25040626525878906,0.10828995704650879,0.10560619831085205
1712257567776996600,5.92699658203125,-0.27320003509521484,0.07456207275390625,-0.06506764888763428
1712257567787002400,5.93700244140625,-0.1529855728149414,0.03715348243713379,-0.0900527834892273
1712257567797008100,5.947008056640625,0.08661556243896484,0.003782033920288086,-0.11119714379310608
1712257567807014000,5.957013916015625,0.23573780059814453,-0.05601024627685547,-0.09327253699302673
1712257567817019600,5.96701953125,0.3953590393066406,-0.1004033088684082,-0.11545878648757935
1712257567827025400,5.977025390625,0.5611705780029297,-0.07841944694519043,-0.1509920060634613
1712257567837031200,5.98703125,0.49912166595458984,-0.04307222366333008,-0.12145814299583435
1712257567847037200,5.997037109375,0.2904176712036133,-0.04969072341918945,-0.1012805700302124
1712257567857043000,6.00704296875,-0.20903873443603516,-0.04594230651855469,-0.09353280067443848
1712257567867048700,6.017048583984375,-0.7521724700927734,-0.08236169815063477,-0.08863383531570435
1712257567877054500,6.027054443359375,-1.049006462097168,-0.029874563217163086,-0.11192053556442261
1712257567887060200,6.037060302734375,-1.0383825302124023,0.02128458023071289,-0.10953903198242188
1712257567897066000,6.04706591796875,-0.7587862014770508,0.016457080841064453,-0.04729032516479492
1712257567907071700,6.05707177734375,-0.19495296478271484,0.01703929901123047,0.03910517692565918
1712257567917077500,6.067077392578125,0.39176368713378906,0.034895896911621094,0.060032784938812256
1712257567927083300,6.077083251953125,0.7832851409912109,0.1023259162902832,0.04019683599472046
1712257567937089000,6.087089111328125,0.8853015899658203,0.015761375427246094,0.08821403980255127
1712257567947094800,6.0970947265625,0.7366533279418945,-0.052228450775146484,0.00843667984008789
1712257567957100500,6.1071005859375,0.48550987243652344,0.03451132774353027,-0.0324709415435791
1712257567967106600,6.1171064453125,0.19321250915527344,0.10750961303710938,0.09099411964416504
1712257567977112300,6.1271123046875,0.03057861328125,0.10382723808288574,0.13437020778656006
1712257567987118000,6.1371181640625,-0.13708877563476562,0.10213136672973633,0.12333285808563232
1712257567997123800,6.147123779296875,-0.2576560974121094,0.05617189407348633,0.06784713268280029
1712257568007129600,6.157129638671875,-0.23095035552978516,0.03295421600341797,-0.008198320865631104
1712257568017135400,6.16713525390625,-0.1861886978149414,0.0032911300659179688,-0.04756593704223633
1712257568027141000,6.17714111328125,-0.13756084442138672,0.009717464447021484,-0.0990491509437561
1712257568037147000,6.18714697265625,-0.022703170776367188,0.04167366027832031,-0.06777024269104004
1712257568047152600,6.197152587890625,0.07741451263427734,0.06915068626403809,0.026030540466308594
1712257568057158400,6.207158447265625,0.14206981658935547,0.056459665298461914,0.04271578788757324
1712257568067164200,6.2171640625,0.187255859375,0.05137753486633301,-0.02440786361694336
1712257568077170000,6.227169921875,0.16157913208007812,0.03934454917907715,-0.05608624219894409
1712257568087176000,6.237176025390625,0.13669967651367188,0.030675649642944336,-0.03943049907684326
1712257568097181700,6.247181640625,0.09360694885253906,0.03092336654663086,-0.01393735408782959
1712257568107187500,6.2571875,0.032357215881347656,0.03156614303588867,0.015144050121307373
1712257568117193200,6.267193115234375,-0.08926200866699219,0.023958683013916016,0.05134516954421997
1712257568127199000,6.277198974609375,-0.22348690032958984,-0.018719196319580078,0.014202356338500977
1712257568137204700,6.287204833984375,-0.2572793960571289,-0.0059757232666015625,-0.03767269849777222
1712257568147210500,6.29721044921875,-0.20161151885986328,0.022915363311767578,-0.03238964080810547
1712257568157216300,6.30721630859375,-0.10950851440429688,0.04773235321044922,0.024892151355743408
1712257568167222000,6.317221923828125,-0.0425262451171875,0.03915238380432129,0.09624290466308594
1712257568177227800,6.327227783203125,0.0046672821044921875,0.03447890281677246,0.05963134765625
1712257568187233500,6.337233642578125,0.06067657470703125,0.06174063682556152,-0.02151620388031006
1712257568197239300,6.3472392578125,0.05946826934814453,0.007443428039550781,-0.07182291150093079
1712257568207245000,6.3572451171875,0.067901611328125,-0.018354415893554688,-0.08400166034698486
1712257568217250800,6.367250732421875,0.06690502166748047,0.026953697204589844,-0.11723089218139648
1712257568227256600,6.377256591796875,0.04712867736816406,0.04839658737182617,-0.14796316623687744
1712257568237262300,6.387262451171875,-0.0242462158203125,0.04233837127685547,-0.08226308226585388
1712257568247268000,6.39726806640625,-0.061798095703125,0.05687904357910156,-0.0339396595954895
1712257568257273900,6.40727392578125,0.004473686218261719,0.08226442337036133,-0.057940155267715454
1712257568267279600,6.417279541015625,0.10706424713134766,0.11300301551818848,-0.011576652526855469
1712257568277285400,6.427285400390625,0.09008026123046875,0.09670019149780273,0.029413670301437378
1712257568287291000,6.437290771484375,0.0543975830078125,0.06681680679321289,0.03357350826263428
1712257568297296600,6.447296630859375,0.08520221710205078,0.060771942138671875,0.058115482330322266
1712257568307302400,6.457302490234375,0.10633277893066406,0.0441286563873291,0.06024572253227234
1712257568317308200,6.46730810546875,0.052028656005859375,0.01728224754333496,0.04865726828575134
1712257568327314000,6.47731396484375,0.03638172149658203,-0.023316144943237305,0.026620984077453613
1712257568337319700,6.487319580078125,-0.016663551330566406,-0.0017273426055908203,0.03151148557662964
1712257568347325400,6.497325439453125,-0.08797931671142578,0.03970980644226074,0.07329607009887695
1712257568357331200,6.507331298828125,-0.11145687103271484,0.04434013366699219,0.11508798599243164
1712257568367336700,6.517336669921875,-0.06907463073730469,0.07839345932006836,0.13055190443992615
1712257568377342500,6.527342529296875,-0.01821613311767578,0.10293054580688477,0.13868439197540283
1712257568387348200,6.53734814453125,0.050658226013183594,0.07945728302001953,0.11120587587356567
1712257568397354000,6.54735400390625,0.1469573974609375,0.10677933692932129,0.05212238430976868
1712257568407359700,6.55735986328125,0.17160511016845703,0.12216448783874512,-0.04927602410316467
1712257568417365500,6.567365478515625,0.19190406799316406,0.059494972229003906,-0.07648885250091553
1712257568427371300,6.577371337890625,0.19387340545654297,0.004614591598510742,-0.045327991247177124
1712257568437377000,6.587376953125,0.16826534271240234,-0.028098344802856445,-0.06899967789649963
1712257568447382500,6.597382568359375,0.0728302001953125,-0.042620182037353516,-0.060764193534851074
1712257568457388300,6.60738818359375,-0.1246633529663086,-0.037770986557006836,-0.04352185130119324
1712257568467394000,6.61739404296875,-0.2676677703857422,-0.026088714599609375,-0.06358745694160461
1712257568477399800,6.62739990234375,-0.2820005416870117,-0.011471748352050781,-0.08252635598182678
1712257568487405600,6.637405517578125,-0.22155284881591797,0.0056154727935791016,-0.01903948187828064
1712257568497411300,6.647411376953125,-0.21470069885253906,0.02009892463684082,0.00950545072555542
1712257568507417000,6.6574169921875,-0.19452857971191406,0.04103994369506836,-0.033780068159103394
1712257568517422800,6.6674228515625,-0.15633487701416016,0.06815004348754883,-0.05691513419151306
1712257568527428600,6.6774287109375,-0.03418159484863281,0.10512995719909668,-0.03382366895675659
1712257568537434000,6.68743408203125,0.09557437896728516,0.1128232479095459,-0.013378173112869263
1712257568547439900,6.69743994140625,0.24255847930908203,0.05766868591308594,-0.006472975015640259
1712257568557445600,6.707445556640625,0.28885459899902344,0.015656709671020508,0.0014134049415588379
1712257568567451400,6.717451416015625,0.26431846618652344,0.028969287872314453,-0.030572503805160522
1712257568577457200,6.72745703125,0.2406768798828125,0.044991493225097656,-0.02044922113418579
1712257568587463000,6.737462890625,0.21791744232177734,0.05885004997253418,0.02226388454437256
1712257568597468700,6.74746875,0.10181999206542969,0.10805773735046387,-0.01884320378303528
1712257568607474400,6.757474365234375,0.016175270080566406,0.10776519775390625,0.03797844052314758
1712257568617480000,6.76747998046875,-0.0726156234741211,0.0783090591430664,0.030131369829177856
1712257568627485700,6.777485595703125,-0.19792842864990234,0.04569053649902344,0.00513148307800293
1712257568637491500,6.787491455078125,-0.2607088088989258,0.025886058807373047,-0.037235409021377563
1712257568647497200,6.797497314453125,-0.2714576721191406,-0.014170408248901367,-0.0398290753364563
1712257568657503000,6.8075029296875,-0.2309741973876953,-0.04135608673095703,-0.031917065382003784
1712257568667508700,6.8175087890625,-0.15399932861328125,-0.04725790023803711,-0.0333578884601593
1712257568677514500,6.827514404296875,0.0016021728515625,-0.009755849838256836,-0.074517160654068
1712257568687520300,6.837520263671875,0.15017318725585938,-0.011410236358642578,-0.0030826032161712646
1712257568697526000,6.847526123046875,0.2403726577758789,-0.06734704971313477,0.16679143905639648
1712257568707531800,6.85753173828125,0.26392269134521484,0.1334850788116455,0.01863357424736023
1712257568717537500,6.86753759765625,0.24544525146484375,0.1728212833404541,-0.10009902715682983
1712257568727543600,6.87754345703125,0.24668502807617188,0.10124826431274414,-0.07305774092674255
1712257568737549300,6.88754931640625,0.18702411651611328,0.02516651153564453,0.02672138810157776
1712257568747555000,6.89755517578125,0.05302619934082031,-0.00727081298828125,0.05881735682487488
1712257568757560800,6.907560791015625,-0.05080127716064453,0.01833939552307129,0.04967668652534485
1712257568767566600,6.917566650390625,-0.06391048431396484,0.06887030601501465,0.04126334190368652
1712257568777572400,6.927572265625,-0.06789588928222656,0.06886863708496094,0.027856409549713135
1712257568787578000,6.937578125,-0.08168792724609375,0.06115388870239258,-0.0033867359161376953
1712257568797584000,6.947583984375,-0.0861196517944336,0.04966259002685547,-0.027125924825668335
1712257568807589600,6.957589599609375,-0.06695365905761719,0.038355350494384766,-0.06394541263580322
1712257568817595400,6.967595458984375,0.0038890838623046875,0.045485734939575195,-0.11567720770835876
1712257568827601200,6.97760107421875,0.09746551513671875,0.06554174423217773,-0.07980808615684509
1712257568837607000,6.98760693359375,0.10512542724609375,0.05583000183105469,-0.04265353083610535
1712257568847613000,6.997613037109375,0.075225830078125,0.036084651947021484,-0.021394729614257812
1712257568857618700,7.00761865234375,0.017763137817382812,0.006569623947143555,0.013109773397445679
1712257568867624400,7.01762451171875,-0.029166221618652344,-0.009023427963256836,0.028679847717285156
1712257568877630200,7.027630126953125,-0.08462047576904297,0.0032732486724853516,0.08761835098266602
1712257568887636000,7.037635986328125,-0.17226123809814453,0.03433990478515625,0.12042444944381714
1712257568897641700,7.047641845703125,-0.24007701873779297,0.06624817848205566,0.043152451515197754
1712257568907647500,7.0576474609375,-0.2602577209472656,0.06678605079650879,-0.06915345788002014
1712257568917653200,7.0676533203125,-0.2382059097290039,0.04101204872131348,-0.047800421714782715
1712257568927659000,7.077658935546875,-0.08959579467773438,0.06836652755737305,0.015122920274734497
1712257568937664800,7.087664794921875,0.10851573944091797,0.08983254432678223,-0.0029732882976531982
1712257568947670500,7.09767041015625,0.34161949157714844,0.10379743576049805,-0.0587594211101532
1712257568957676300,7.10767626953125,0.4869832992553711,0.10017609596252441,-0.15395516157150269
1712257568967682300,7.117682373046875,0.5274944305419922,0.09250903129577637,-0.19493502378463745
1712257568977688000,7.12768798828125,0.4837779998779297,0.07125020027160645,-0.12097060680389404
1712257568987693800,7.13769384765625,0.3522834777832031,0.027996063232421875,-0.0262736976146698
1712257568997699600,7.147699462890625,0.2518949508666992,-0.026479721069335938,0.09051674604415894
1712257569007705300,7.157705322265625,0.20537185668945312,-0.010847091674804688,0.13010665774345398
1712257569017711000,7.167711181640625,0.08435916900634766,0.01373147964477539,0.15549564361572266
1712257569027716900,7.177716796875,-0.08665180206298828,0.010457754135131836,0.19597113132476807
1712257569037722600,7.18772265625,-0.27422428131103516,-0.009771108627319336,0.2252521514892578
1712257569047728400,7.197728271484375,-0.40304088592529297,-0.02223825454711914,0.2589227557182312
1712257569057734100,7.207734130859375,-0.41298866271972656,-0.002844572067260742,0.12547144293785095
1712257569067740000,7.217739990234375,-0.31057167053222656,0.042912960052490234,-0.1285751909017563
1712257569077745700,7.22774560546875,-0.1725606918334961,0.04729914665222168,-0.22089883685112
1712257569087751700,7.237751708984375,-0.06970691680908203,0.0045697689056396484,-0.19237342476844788
1712257569097757400,7.24775732421875,-0.005793571472167969,-0.05277132987976074,-0.15826888382434845
1712257569107763200,7.25776318359375,0.02447986602783203,-0.0725865364074707,-0.1601574867963791
1712257569117769000,7.26776904296875,0.021532058715820312,-0.03636026382446289,-0.1627388745546341
1712257569127774700,7.277774658203125,0.023278236389160156,0.05135035514831543,-0.11372765898704529
1712257569137780500,7.287780517578125,-0.05547904968261719,0.12976598739624023,-0.10773016512393951
1712257569147786200,7.2977861328125,-0.07713508605957031,0.17170405387878418,-0.10069148242473602
1712257569157792000,7.3077919921875,-0.0660552978515625,0.16774535179138184,0.016545772552490234
1712257569167797800,7.3177978515625,-0.008429527282714844,0.12253022193908691,0.05838242173194885
1712257569177803500,7.327803466796875,0.062308311462402344,0.03577280044555664,-0.012651950120925903
1712257569187809300,7.337809326171875,0.05672740936279297,0.001569986343383789,0.006680399179458618
1712257569197815000,7.34781494140625,-0.00036525726318359375,-0.01392507553100586,0.07277658581733704
1712257569207820800,7.35782080078125,-0.08936882019042969,-0.05309581756591797,0.0344262421131134
1712257569217826600,7.36782666015625,-0.15818500518798828,-0.06294536590576172,0.02542760968208313
1712257569227832300,7.377832275390625,-0.20738792419433594,-0.02423262596130371,0.05450931191444397
1712257569237838000,7.387838134765625,-0.1950969696044922,0.048684120178222656,0.06486830115318298
1712257569247843600,7.397843505859375,-0.13166522979736328,0.09371733665466309,0.07079771161079407
1712257569257849300,7.407849365234375,-0.036510467529296875,0.1056356430053711,0.02062210440635681
1712257569267855000,7.417855224609375,0.0713958740234375,0.10715007781982422,-0.07565832138061523
1712257569277860900,7.42786083984375,0.13086891174316406,0.08360505104064941,-0.06793752312660217
1712257569287866600,7.43786669921875,0.1190328598022461,0.03129887580871582,-0.043346107006073
1712257569297872400,7.447872314453125,0.12160587310791016,-0.010913610458374023,-0.08129885792732239
1712257569307878100,7.457878173828125,0.06765365600585938,0.003980875015258789,0.004003405570983887
1712257569317884000,7.4678837890625,0.047379493713378906,0.0426325798034668,0.10357460379600525
1712257569327889400,7.477889404296875,0.0037221908569335938,0.05275559425354004,0.07658892869949341
1712257569337895200,7.487895263671875,-0.04398059844970703,0.04878664016723633,0.026781708002090454
1712257569347901000,7.49790087890625,-0.029793739318847656,0.07365775108337402,-0.05113440752029419
1712257569357906700,7.50790673828125,0.07835578918457031,0.12160253524780273,-0.11397798359394073
1712257569367912400,7.517912353515625,0.08584213256835938,0.12209868431091309,-0.10441786050796509
1712257569377918200,7.527918212890625,0.003719329833984375,0.05737805366516113,-0.019959241151809692
1712257569387924000,7.537924072265625,-0.030073165893554688,-0.014778614044189453,0.05987772345542908
1712257569397929700,7.5479296875,-0.03988838195800781,-0.042865753173828125,0.1104135811328888
1712257569407935200,7.557935302734375,-0.05438041687011719,-0.023222923278808594,0.13914424180984497
1712257569417941000,7.56794091796875,-0.03567695617675781,0.014507293701171875,0.0812821090221405
1712257569427946800,7.57794677734375,0.029966354370117188,0.07406401634216309,-0.014659613370895386
1712257569437952500,7.587952392578125,0.04309654235839844,0.060240983963012695,0.006552308797836304
1712257569447958300,7.597958251953125,0.056593894958496094,0.049283504486083984,-0.020406991243362427
1712257569457964000,7.607964111328125,0.15534400939941406,-0.062030792236328125,-0.21412651240825653
1712257569467969800,7.6179697265625,-0.1333303451538086,-0.031219959259033203,-0.11413469910621643
1712257569477975600,7.6279755859375,-0.21503162384033203,0.023807525634765625,-0.0019006133079528809
1712257569487981300,7.637981201171875,-0.23491764068603516,0.033682823181152344,0.05654144287109375
1712257569497986800,7.64798681640625,-0.19888973236083984,0.051252126693725586,0.04050946235656738
1712257569507992600,7.65799267578125,-0.12198925018310547,0.09043550491333008,-0.006242215633392334
1712257569517998300,7.667998291015625,-0.03763008117675781,0.07475662231445312,-0.03181391954421997
1712257569528004000,7.678004150390625,0.035617828369140625,0.02267169952392578,-0.028036922216415405
1712257569538009900,7.688009765625,0.1359272003173828,-0.028736591339111328,-0.0329689085483551
1712257569548015600,7.698015625,0.2586050033569336,-0.01535487174987793,0.005556315183639526
1712257569558021400,7.708021484375,0.37062549591064453,0.06523489952087402,0.0634511411190033
1712257569568027100,7.718027099609375,0.3261909484863281,0.10391068458557129,0.058551639318466187
1712257569578032600,7.72803271484375,0.2076864242553711,0.08844733238220215,0.028320997953414917
1712257569588038400,7.738038330078125,0.04913902282714844,0.06262660026550293,0.030555307865142822
1712257569598044200,7.748044189453125,-0.09710979461669922,0.050446271896362305,0.07052648067474365
1712257569608050000,7.7580498046875,-0.17021560668945312,0.004979848861694336,0.040685832500457764
1712257569618055700,7.7680556640625,-0.17151641845703125,-0.03974032402038574,-0.006414145231246948
1712257569628061400,7.7780615234375,-0.15880680084228516,-0.050238609313964844,-0.029192328453063965
1712257569638067200,7.788067138671875,-0.13219928741455078,-0.018179893493652344,-0.02296695113182068
1712257569648073000,7.798072998046875,-0.06357383728027344,0.027171850204467773,-0.007528156042098999
1712257569658078700,7.80807861328125,-0.005298614501953125,0.038205862045288086,-0.026476770639419556
1712257569668084500,7.81808447265625,0.08054447174072266,0.05758047103881836,-0.05564972758293152
1712257569678090200,7.82809033203125,0.1087188720703125,0.10418152809143066,-0.06256124377250671
1712257569688096000,7.838095947265625,0.056395530700683594,0.12196612358093262,-0.08515849709510803
1712257569698101800,7.848101806640625,0.009397506713867188,0.10289525985717773,-0.07058808207511902
1712257569708107500,7.858107421875,0.0005483627319335938,0.07583069801330566,-0.013637363910675049
1712257569718113300,7.86811328125,0.005766868591308594,0.05431175231933594,0.0023599863052368164
1712257569728119000,7.878119140625,0.0013246536254882812,0.033251047134399414,0.002146899700164795
1712257569738125000,7.888125,-0.03599262237548828,0.012224912643432617,0.03659960627555847
1712257569748130800,7.898130859375,-0.10101032257080078,0.005743741989135742,0.03399398922920227
1712257569758136600,7.908136474609375,-0.16986656188964844,-0.014061689376831055,-0.04799002408981323
1712257569768142300,7.918142333984375,-0.14367961883544922,-0.0041713714599609375,-0.07732003927230835
1712257569778148000,7.928148193359375,-0.08516502380371094,0.04433107376098633,-0.07557281851768494
1712257569788153900,7.93815380859375,-0.04180908203125,0.040866851806640625,-0.10473805665969849
1712257569798159600,7.94815966796875,-0.008461952209472656,0.042099952697753906,-0.05594867467880249
1712257569808165400,7.958165283203125,0.05289459228515625,0.028390884399414062,-0.04312318563461304
1712257569818171100,7.968171142578125,0.08059978485107422,0.0042989253997802734,-0.01648569107055664
1712257569828177000,7.978177001953125,0.03750133514404297,0.04050397872924805,0.0678384006023407
1712257569838182700,7.9881826171875,-0.009577751159667969,0.07567548751831055,0.07308989763259888
1712257569848188400,7.9981884765625,-0.03724098205566406,0.06828665733337402,0.04264959692955017
