time,seconds_elapsed,z,y,x
1717686830314003000,0.1170029296875,0.31333065032958984,0.048485755920410156,0.06404811143875122
1717686830323951000,0.126951171875,0.4189739227294922,0.03120279312133789,0.07883962243795395
1717686830333934600,0.1369345703125,0.3939676284790039,0.018543243408203125,0.04962749034166336
1717686830343953200,0.146953125,0.3137989044189453,-0.003273487091064453,0.07211489230394363
1717686830354005000,0.1570048828125,0.23853778839111328,-0.016319751739501953,0.11725828796625137
1717686830364086800,0.167086669921875,0.1351451873779297,-0.029706478118896484,0.1350138932466507
1717686830374194700,0.177194580078125,-0.009694099426269531,-0.02026081085205078,0.07291477918624878
1717686830384323600,0.187323486328125,-0.12375354766845703,-0.010284900665283203,0.019436009228229523
1717686830394467800,0.1974677734375,-0.11086559295654297,-0.008211135864257812,-0.022650063037872314
1717686830404621300,0.207621337890625,-0.013761520385742188,0.00842142105102539,-0.018698133528232574
1717686830414777900,0.21777783203125,0.073486328125,0.024559497833251953,-0.04846886545419693
1717686830424860700,0.227860595703125,0.111053466796875,0.04918622970581055,-0.10181715339422226
1717686830434869000,0.237868896484375,0.1425161361694336,0.08657646179199219,-0.13243477046489716
1717686830444877300,0.247877197265625,0.21875762939453125,0.08108282089233398,-0.12349993735551834
1717686830454885600,0.2578857421875,0.32947444915771484,0.06104850769042969,-0.03416883200407028
1717686830464894000,0.26789404296875,0.37322235107421875,0.03969621658325195,0.05152304470539093
1717686830474902300,0.27790234375,0.32523441314697266,0.049076080322265625,0.029125526547431946
1717686830484910600,0.28791064453125,0.2391815185546875,0.024094104766845703,-0.014242298901081085
1717686830494918700,0.297918701171875,0.11578083038330078,-0.019518375396728516,-0.013167090713977814
1717686830504927000,0.307927001953125,0.010980606079101562,-0.043483734130859375,-0.0066966712474823
1717686830514935300,0.317935302734375,-0.05354022979736328,-0.029067516326904297,-0.08408842980861664
1717686830524943600,0.327943603515625,-0.11206722259521484,-0.0045623779296875,-0.08591748774051666
1717686830534952000,0.337951904296875,-0.1373157501220703,-0.01623058319091797,0.013833045959472656
1717686830544960300,0.347960205078125,-0.09789085388183594,-0.03977775573730469,0.05427631735801697
1717686830554968600,0.357968505859375,-0.0044498443603515625,-0.033994197845458984,0.04628412425518036
1717686830564976600,0.3679765625,0.07699775695800781,0.01806020736694336,-0.03331176936626434
1717686830574985000,0.37798486328125,0.14719486236572266,0.03099346160888672,-0.034496888518333435
1717686830584993300,0.3879931640625,0.22102928161621094,0.014229774475097656,0.06612594425678253
1717686830595001600,0.398001708984375,0.2056102752685547,-0.004147052764892578,0.09673678874969482
1717686830605010000,0.408010009765625,0.0937652587890625,-0.009868144989013672,0.05024980008602142
1717686830615018200,0.418018310546875,-0.056723594665527344,-0.04425859451293945,-0.026221707463264465
1717686830625026600,0.428026611328125,-0.17120647430419922,-0.07242679595947266,-0.058477044105529785
1717686830635034600,0.43803466796875,-0.2045125961303711,-0.014144420623779297,-0.043605223298072815
1717686830645043000,0.44804296875,-0.16356849670410156,0.007606029510498047,-0.05314245820045471
1717686830655051300,0.45805126953125,-0.058974266052246094,0.03498697280883789,-0.09080925583839417
1717686830665059600,0.4680595703125,-0.013172149658203125,0.02480316162109375,-0.12851661443710327
1717686830675068000,0.47806787109375,-0.09028339385986328,0.019821643829345703,-0.005922004580497742
1717686830685076200,0.488076171875,-0.05377483367919922,-0.012340068817138672,-0.007648035883903503
1717686830695084300,0.498084228515625,-0.018303871154785156,-0.019940853118896484,-0.023351386189460754
1717686830705092600,0.508092529296875,0.04437446594238281,-0.017663002014160156,0.012761592864990234
1717686830715101000,0.518100830078125,0.10109138488769531,-0.0013828277587890625,0.011586993932723999
1717686830725109200,0.528109130859375,0.1382589340209961,-0.014231681823730469,0.002474755048751831
1717686830735117600,0.53811767578125,0.11424064636230469,-0.013744354248046875,-0.029113799333572388
1717686830745126000,0.5481259765625,0.06297683715820312,-0.004694938659667969,-0.03607754409313202
1717686830755134200,0.55813427734375,0.03177070617675781,0.00834035873413086,-0.047080084681510925
1717686830765142500,0.568142578125,0.07639408111572266,0.054041385650634766,-0.1109563559293747
1717686830775150800,0.57815087890625,0.12490558624267578,0.08023452758789062,-0.03820556402206421
1717686830785159400,0.588159423828125,0.19151687622070312,0.0398707389831543,0.0390278697013855
1717686830795167700,0.598167724609375,0.21038150787353516,0.027627944946289062,0.01261138916015625
1717686830805176000,0.608176025390625,0.18259429931640625,0.03315544128417969,-0.027053028345108032
1717686830815184400,0.618184326171875,0.06155204772949219,0.019135475158691406,-0.0856093019247055
1717686830825192700,0.628192626953125,-0.07670307159423828,0.03444671630859375,-0.1818585991859436
1717686830835201000,0.638200927734375,-0.07231330871582031,0.04184293746948242,-0.135821133852005
1717686830845209300,0.648209228515625,0.020913124084472656,0.017168045043945312,-0.03360524773597717
1717686830855217700,0.6582177734375,0.08899974822998047,0.007022380828857422,0.016529977321624756
1717686830865226000,0.66822607421875,0.06679439544677734,0.029358863830566406,0.04348018765449524
1717686830875234300,0.678234375,0.10173702239990234,0.04134559631347656,0.08009502291679382
1717686830885242600,0.68824267578125,0.09885692596435547,0.04759359359741211,0.06938907504081726
1717686830895251000,0.6982509765625,0.025628089904785156,0.0297393798828125,0.01675736904144287
1717686830905259300,0.70825927734375,-0.037095069885253906,0.031298160552978516,-0.011914581060409546
1717686830915267600,0.718267578125,-0.028537750244140625,0.02424907684326172,-0.027316153049468994
1717686830925276000,0.72827587890625,0.03135871887207031,0.03679609298706055,0.0038915276527404785
1717686830935284200,0.7382841796875,0.09989643096923828,-0.012544631958007812,0.03060966730117798
1717686830945292500,0.74829248046875,0.15847110748291016,-0.038733482360839844,0.08167865872383118
1717686830955300900,0.75830078125,0.16028976440429688,-0.04714536666870117,0.04894706606864929
1717686830965309200,0.76830908203125,0.03040027618408203,-0.02283477783203125,-0.05756330490112305
1717686830975317800,0.77831787109375,-0.027205467224121094,-0.02625274658203125,-0.08638107776641846
1717686830985326000,0.788326171875,-0.056229591369628906,-0.04253339767456055,-0.10540765523910522
1717686830995334400,0.79833447265625,-0.08072185516357422,-0.014866828918457031,-0.10589253902435303
1717686831005342700,0.8083427734375,-0.053539276123046875,-0.014896869659423828,-0.012297779321670532
1717686831015351000,0.81835107421875,-0.017370223999023438,-0.03386735916137695,0.08550718426704407
1717686831025359400,0.828359375,0.00429534912109375,-0.03889179229736328,0.07455563545227051
1717686831035367700,0.83836767578125,-0.03074169158935547,-0.020574092864990234,-0.08244393765926361
1717686831045376000,0.8483759765625,-0.05601215362548828,0.06392621994018555,-0.16323626041412354
1717686831055384300,0.85838427734375,-0.02926158905029297,0.07215499877929688,-0.08415430784225464
1717686831065392600,0.868392578125,0.07718658447265625,0.028270721435546875,-0.0016815662384033203
1717686831075401000,0.87840087890625,0.12130165100097656,0.012075424194335938,0.04258251190185547
1717686831085409300,0.8884091796875,0.033367156982421875,0.0375208854675293,-0.040975138545036316
1717686831095417600,0.89841748046875,-0.029435157775878906,0.0011682510375976562,-0.1290961652994156
1717686831105426000,0.908426025390625,-0.07712650299072266,-0.010823249816894531,-0.0900983065366745
1717686831115434200,0.918434326171875,-0.11490631103515625,-0.026758670806884766,-0.04216182231903076
1717686831125442600,0.928442626953125,-0.1148080825805664,-0.036980628967285156,0.02965596318244934
1717686831135451000,0.938450927734375,-0.09630584716796875,-0.041593074798583984,0.031293660402297974
1717686831145459200,0.948459228515625,-0.06438636779785156,-0.0030107498168945312,-0.10305526852607727
1717686831155467500,0.958467529296875,0.004253387451171875,0.021650314331054688,-0.08980633318424225
1717686831165476000,0.96847607421875,0.12360191345214844,0.008144378662109375,0.07837823033332825
1717686831175484400,0.978484375,0.255645751953125,-0.02039623260498047,0.2637177109718323
1717686831185492700,0.98849267578125,0.27806949615478516,-0.036126136779785156,0.2781403660774231
1717686831195501000,0.9985009765625,0.19723796844482422,-0.01534414291381836,0.1849229633808136
1717686831205509400,1.00850927734375,0.08025455474853516,0.04246997833251953,-0.02037857472896576
1717686831215517700,1.018517578125,0.07820320129394531,0.03831195831298828,-0.09784020483493805
1717686831225526000,1.028526123046875,0.08588027954101562,0.014941692352294922,-0.006065770983695984
1717686831235534300,1.038534423828125,0.07017993927001953,-0.0227203369140625,0.05094641447067261
1717686831245542700,1.048542724609375,0.03596973419189453,-0.026885986328125,0.04995456337928772
1717686831255551000,1.058551025390625,-0.0024623870849609375,0.006869792938232422,-0.0031825751066207886
1717686831265559300,1.068559326171875,-0.011960029602050781,0.03526496887207031,-0.02704620361328125
1717686831275567600,1.078567626953125,-0.044829368591308594,0.020817279815673828,-0.02286091446876526
1717686831285576000,1.088575927734375,-0.06310844421386719,-0.02615499496459961,-0.0004667043685913086
1717686831295584300,1.098584228515625,-0.02447032928466797,-0.039670467376708984,0.05580422282218933
1717686831305592600,1.108592529296875,-0.06651782989501953,-0.020101070404052734,0.023283272981643677
1717686831315601000,1.118600830078125,-0.12244510650634766,-0.009440422058105469,-0.04078863561153412
1717686831325609200,1.128609130859375,-0.12149333953857422,0.0021615028381347656,-0.10910706222057343
1717686831335617500,1.138617431640625,-0.12106132507324219,-0.0042324066162109375,-0.13008394837379456
1717686831345625900,1.1486259765625,-0.012509346008300781,-0.014845848083496094,-0.04333806037902832
1717686831355634200,1.15863427734375,0.023805618286132812,0.007308483123779297,-0.0007346868515014648
1717686831365642800,1.168642822265625,-0.006214141845703125,0.028730392456054688,-0.053151875734329224
1717686831375651000,1.178651123046875,-0.07334136962890625,-0.0020804405212402344,-0.08650770783424377
1717686831385659400,1.188659423828125,-0.0923309326171875,-0.03689718246459961,-0.059106990694999695
1717686831395667700,1.198667724609375,-0.1065969467163086,-0.02339792251586914,-0.04734650254249573
1717686831405676000,1.208676025390625,-0.06451988220214844,-0.023412227630615234,-0.01786847412586212
1717686831415684400,1.218684326171875,0.014389991760253906,-0.023146629333496094,0.015688955783843994
1717686831425692700,1.228692626953125,0.09215736389160156,-0.018561363220214844,0.08261770009994507
1717686831435701000,1.238700927734375,0.13131427764892578,-0.024226665496826172,0.08837428689002991
1717686831445709300,1.248709228515625,0.15597057342529297,-0.02565479278564453,0.056829601526260376
1717686831455717600,1.258717529296875,0.1570425033569336,0.0098724365234375,-0.01633697748184204
1717686831465726000,1.268725830078125,0.13959503173828125,0.006490230560302734,0.024631083011627197
1717686831475734300,1.278734375,0.0707082748413086,0.0030670166015625,0.0409141480922699
1717686831485742600,1.28874267578125,-0.006667137145996094,-0.01396799087524414,0.03776955604553223
1717686831495751000,1.2987509765625,0.006518363952636719,-0.01622152328491211,0.015980005264282227
1717686831505759200,1.30875927734375,0.07154273986816406,-0.009572505950927734,0.018648236989974976
1717686831515767600,1.318767578125,0.05587005615234375,0.019582748413085938,0.027085691690444946
1717686831525776000,1.32877587890625,-0.02558422088623047,0.024908065795898438,-0.02514171600341797
1717686831535784200,1.3387841796875,-0.040015220642089844,0.011787891387939453,-0.06671656668186188
1717686831545792500,1.34879248046875,-0.011874198913574219,0.008410930633544922,-0.06545378267765045
1717686831555801000,1.358801025390625,-0.012508392333984375,0.0335383415222168,-0.08913776278495789
1717686831565809400,1.368809326171875,0.04319572448730469,0.03046417236328125,-0.01072654128074646
1717686831575817700,1.378817626953125,0.1547555923461914,0.026868343353271484,0.08082902431488037
1717686831585826000,1.388825927734375,0.1849803924560547,0.012691497802734375,0.092243492603302
1717686831595834400,1.39883447265625,0.1069040298461914,0.0024313926696777344,0.05698239803314209
1717686831605842700,1.4088427734375,-0.049874305725097656,0.011077404022216797,-0.03400909900665283
1717686831615851000,1.41885107421875,-0.11985492706298828,-0.01697397232055664,-0.02908298373222351
1717686831625859300,1.428859375,-0.07148456573486328,-0.05297088623046875,0.028247982263565063
1717686831635867600,1.43886767578125,-0.029023170471191406,-0.035854339599609375,0.010301589965820312
1717686831645876000,1.4488759765625,0.021953582763671875,0.004882335662841797,-0.06347984075546265
1717686831655884300,1.45888427734375,0.048470497131347656,0.0357203483581543,-0.1369546502828598
1717686831665892600,1.468892578125,0.08412551879882812,0.056369781494140625,-0.1631348431110382
1717686831675901000,1.47890087890625,0.08643341064453125,0.057496070861816406,-0.16164380311965942
1717686831685909200,1.4889091796875,0.09849834442138672,0.02493000030517578,-0.09490521252155304
1717686831695917600,1.49891748046875,0.06383419036865234,-0.0034856796264648438,-0.0011202991008758545
1717686831705926000,1.50892578125,-0.002841949462890625,-0.03216886520385742,0.025227397680282593
1717686831715934200,1.518934326171875,-0.02605438232421875,-0.017903804779052734,0.008112877607345581
1717686831725942500,1.528942626953125,-0.039424896240234375,-0.0038604736328125,-0.07126691937446594
1717686831735950800,1.538950927734375,-0.03385162353515625,0.019652366638183594,-0.05602853000164032
1717686831745959400,1.54895947265625,-0.014299392700195312,-0.00892782211303711,0.053404808044433594
1717686831755967700,1.5589677734375,-0.042275428771972656,-0.055706024169921875,0.12916302680969238
1717686831765976000,1.56897607421875,-0.09367656707763672,-0.07753133773803711,0.0963309109210968
1717686831775984400,1.578984375,-0.092987060546875,-0.07906484603881836,0.11150214076042175
1717686831785992700,1.58899267578125,-0.05504035949707031,-0.08918285369873047,0.14040955901145935
1717686831796001000,1.5990009765625,-0.027364730834960938,-0.07985067367553711,0.07937216758728027
1717686831806009300,1.60900927734375,0.018474578857421875,-0.0561823844909668,0.06251278519630432
1717686831816017700,1.619017578125,0.10612297058105469,-0.03809165954589844,0.10363605618476868
1717686831826026000,1.62902587890625,0.15982723236083984,-0.03075408935546875,0.04629993438720703
1717686831836034300,1.639034423828125,0.14257335662841797,-0.010615825653076172,-0.004403024911880493
1717686831846042600,1.649042724609375,0.08371257781982422,-0.005957603454589844,-0.015899479389190674
1717686831856051000,1.659051025390625,-0.0069484710693359375,-0.011166572570800781,-0.008138805627822876
1717686831866059300,1.669059326171875,-0.09160709381103516,0.0030117034912109375,0.00849422812461853
1717686831876067600,1.679067626953125,-0.10004329681396484,0.02748250961303711,0.014647692441940308
1717686831886076000,1.689075927734375,-0.07111072540283203,0.057184696197509766,-0.017616569995880127
1717686831896084200,1.699084228515625,-0.019324302673339844,0.07744598388671875,-0.03129348158836365
1717686831906092500,1.709092529296875,0.045830726623535156,0.0783543586730957,-0.035740822553634644
1717686831916100900,1.719100830078125,0.05361366271972656,0.05053520202636719,-0.02091050148010254
1717686831926109200,1.729109130859375,0.03309440612792969,0.027703285217285156,-0.06716986000537872
1717686831936117800,1.73911767578125,0.02262401580810547,0.0140228271484375,-0.11173442006111145
1717686831946126000,1.7491259765625,-0.04397296905517578,0.01895284652709961,-0.18311429023742676
1717686831956134400,1.759134521484375,-0.11441707611083984,0.0007424354553222656,-0.18715207278728485
1717686831966142700,1.769142822265625,-0.10889720916748047,-0.01132822036743164,-0.10673664510250092
1717686831976151000,1.779151123046875,-0.009611129760742188,0.005706787109375,-0.08915001153945923
1717686831986159400,1.789159423828125,0.0785207748413086,0.032071590423583984,-0.10527719557285309
1717686831996167700,1.799167724609375,0.14670085906982422,0.062068939208984375,-0.1032700389623642
1717686832006176000,1.809176025390625,0.18610191345214844,0.04328441619873047,-0.07350604236125946
1717686832016184300,1.819184326171875,0.16881084442138672,0.023894309997558594,-0.044607266783714294
1717686832026192600,1.829192626953125,0.11454010009765625,0.022823333740234375,-0.02043682336807251
1717686832036201000,1.839200927734375,0.056687355041503906,0.0024666786193847656,-0.03396867215633392
1717686832046209300,1.849209228515625,-0.009830474853515625,-0.0029592514038085938,-0.07612784206867218
1717686832056217600,1.859217529296875,-0.00971221923828125,-0.007452964782714844,-0.038323864340782166
1717686832066226000,1.869225830078125,0.05160331726074219,-0.021291732788085938,0.02280917763710022
1717686832076234200,1.879234130859375,0.050688743591308594,-0.011365890502929688,-0.025328993797302246
1717686832086242600,1.88924267578125,0.054378509521484375,0.008092403411865234,-0.002637147903442383
1717686832096251000,1.8992509765625,0.0675516128540039,0.00810861587524414,0.09538361430168152
1717686832106259200,1.90925927734375,0.09511280059814453,-0.040003299713134766,0.14579278230667114
1717686832116267500,1.919267578125,0.019066810607910156,-0.0600123405456543,0.09740447998046875
1717686832126276000,1.929276123046875,-0.08871746063232422,-0.023083209991455078,-0.0680302083492279
1717686832136284400,1.939284423828125,-0.13394927978515625,0.023607254028320312,-0.06650525331497192
1717686832146292700,1.949292724609375,-0.07035160064697266,-0.03359174728393555,0.014532595872879028
1717686832156301000,1.959301025390625,-0.035964012145996094,-0.0806112289428711,0.07049122452735901
1717686832166309400,1.969309326171875,-0.06324481964111328,-0.07054376602172852,0.09204691648483276
1717686832176317700,1.979317626953125,-0.0903167724609375,-0.02712535858154297,0.046352237462997437
1717686832186326000,1.989325927734375,-0.05593681335449219,-0.012210369110107422,0.005435317754745483
1717686832196334300,1.999334228515625,-0.022104263305664062,-0.016468048095703125,0.07880818843841553
1717686832206342700,2.0093427734375,-0.07336139678955078,-0.030638694763183594,0.09602588415145874
1717686832216351000,2.01935107421875,-0.19452953338623047,-0.044394493103027344,0.06725680828094482
1717686832226359300,2.029359375,-0.2955360412597656,-0.04240226745605469,-0.0034100115299224854
1717686832236367600,2.03936767578125,-0.21663761138916016,-0.04367399215698242,0.0016067028045654297
1717686832246376000,2.0493759765625,-0.08292770385742188,-0.053517818450927734,-0.022635728120803833
1717686832256384300,2.05938427734375,-0.0034990310668945312,-0.048526763916015625,0.019122213125228882
1717686832266392600,2.069392578125,0.06038856506347656,-0.02461528778076172,0.03696233034133911
1717686832276401000,2.07940087890625,0.16117095947265625,0.0076503753662109375,0.013325810432434082
1717686832286409200,2.0894091796875,0.18079376220703125,0.024049758911132812,-0.04670789837837219
1717686832296417500,2.09941748046875,0.09211158752441406,0.04896259307861328,-0.11538629233837128
1717686832306425900,2.10942578125,0.019079208374023438,0.007479190826416016,-0.11274738609790802
1717686832316434200,2.11943408203125,0.0037288665771484375,-0.023778438568115234,-0.0259476900100708
1717686832326442800,2.12944287109375,0.016941070556640625,-0.031061649322509766,0.06379109621047974
1717686832336451000,2.139451171875,0.034778594970703125,-0.029098987579345703,0.10988521575927734
1717686832346459400,2.14945947265625,0.04312419891357422,-0.013518333435058594,0.07553264498710632
1717686832356467700,2.1594677734375,0.023181915283203125,0.03928375244140625,0.03201088309288025
1717686832366476000,2.16947607421875,-0.024796485900878906,0.05382061004638672,-0.08676974475383759
1717686832376484400,2.179484375,-0.02052021026611328,0.01707744598388672,-0.14332745969295502
1717686832386492700,2.18949267578125,0.04952716827392578,0.009392738342285156,-0.020522713661193848
1717686832396501000,2.1995009765625,0.08081340789794922,-0.017204761505126953,0.09159982204437256
1717686832406509300,2.20950927734375,0.0929269790649414,-0.048562049865722656,0.12355947494506836
1717686832416517600,2.219517578125,0.06264877319335938,-0.042215824127197266,0.05296587944030762
1717686832426526000,2.22952587890625,0.004748344421386719,0.001415252685546875,-0.08200065791606903
1717686832436534300,2.2395341796875,-0.038115501403808594,-0.007357120513916016,-0.101796954870224
1717686832446542600,2.24954248046875,-0.03803825378417969,-0.03452730178833008,0.0438191294670105
1717686832456551000,2.259551025390625,-0.023932456970214844,-0.06106853485107422,0.1355353593826294
1717686832466559200,2.269559326171875,-0.019466400146484375,-0.03539419174194336,0.13149824738502502
1717686832476567600,2.279567626953125,-0.010248184204101562,0.008489131927490234,0.0844983160495758
1717686832486575900,2.289575927734375,-0.0008745193481445312,0.022830486297607422,0.023089051246643066
1717686832496584200,2.299584228515625,-0.010186195373535156,0.00812530517578125,0.03702127933502197
1717686832506592500,2.309592529296875,-0.028593063354492188,0.007512569427490234,0.045085906982421875
1717686832516601000,2.31960107421875,-0.03247642517089844,-0.030953407287597656,0.07198691368103027
1717686832526609400,2.329609375,-0.06928539276123047,-0.040535926818847656,0.05241668224334717
1717686832536617700,2.33961767578125,-0.1434164047241211,-0.04950428009033203,0.015679001808166504
1717686832546626000,2.3496259765625,-0.16978836059570312,-0.05249643325805664,-0.029398977756500244
1717686832556634400,2.35963427734375,-0.14450931549072266,-0.06835699081420898,-0.0409969836473465
1717686832566642700,2.369642578125,-0.08251380920410156,-0.04045534133911133,-0.05761754512786865
1717686832576651000,2.379651123046875,-0.026704788208007812,-0.012078285217285156,-0.07908198237419128
1717686832586659300,2.389659423828125,0.04217243194580078,-0.007428646087646484,-0.06284122169017792
1717686832596667600,2.399667724609375,0.0913095474243164,-0.017441272735595703,-0.05679699778556824
1717686832606676000,2.409676025390625,0.13051223754882812,0.014538288116455078,0.023511677980422974
1717686832616684300,2.419684326171875,0.1365213394165039,-0.0019364356994628906,0.09273830056190491
1717686832626692600,2.429692626953125,0.16185665130615234,-0.024071216583251953,0.12798044085502625
1717686832636701000,2.439700927734375,0.14972686767578125,-0.01890850067138672,0.08313459157943726
1717686832646709200,2.449709228515625,0.08174419403076172,0.013485431671142578,-0.040827348828315735
1717686832656717600,2.459717529296875,0.0007295608520507812,0.026609420776367188,-0.08775153756141663
1717686832666726000,2.469725830078125,-0.03684234619140625,0.011832237243652344,-0.0441463440656662
1717686832676734200,2.479734130859375,-0.022260665893554688,-0.0022401809692382812,0.04249921441078186
1717686832686742500,2.489742431640625,-0.008084297180175781,-0.011105060577392578,0.06284105777740479
1717686832696750800,2.499750732421875,-0.008456230163574219,0.027626514434814453,0.04549586772918701
1717686832706759400,2.509759521484375,-0.008977890014648438,0.06609010696411133,-0.03360487520694733
1717686832716767700,2.519767822265625,0.004570960998535156,0.08057880401611328,-0.08433184027671814
1717686832726776000,2.529776123046875,0.022760391235351562,0.06161689758300781,-0.06948651373386383
1717686832736784400,2.539784423828125,0.0313873291015625,0.03800392150878906,-0.03240405023097992
1717686832746792700,2.549792724609375,0.044823646545410156,0.009620189666748047,-0.010757893323898315
1717686832756801000,2.559801025390625,0.04418468475341797,0.02352142333984375,0.03882122039794922
1717686832766809300,2.569809326171875,0.02007293701171875,0.022960662841796875,0.0590381920337677
1717686832776817700,2.579817626953125,0.005707740783691406,-0.019797325134277344,0.041010528802871704
1717686832786826000,2.589825927734375,0.005858421325683594,-0.024465560913085938,0.01829063892364502
1717686832796834300,2.599834228515625,-0.017412185668945312,-0.005795478820800781,-0.055428460240364075
1717686832806842600,2.609842529296875,-0.059258460998535156,-0.02490997314453125,-0.07976068556308746
1717686832816851000,2.619850830078125,-0.09125995635986328,-0.03381204605102539,-0.050772979855537415
1717686832826859300,2.629859375,-0.10446548461914062,-0.05557441711425781,-0.026093602180480957
1717686832836867600,2.63986767578125,-0.06155109405517578,-0.0804753303527832,-0.005977362394332886
1717686832846876000,2.6498759765625,0.0556488037109375,-0.0665593147277832,-0.00554579496383667
1717686832856884200,2.65988427734375,0.18980979919433594,-0.029436588287353516,-0.04834090173244476
1717686832866892500,2.669892578125,0.23746776580810547,0.006134033203125,-0.0631970763206482
1717686832876900900,2.67990087890625,0.26137256622314453,0.016355037689208984,-0.0635913610458374
1717686832886909200,2.6899091796875,0.21493053436279297,0.02491474151611328,-0.0628192126750946
1717686832896917800,2.699917724609375,0.08021736145019531,0.01827859878540039,-0.07059180736541748
1717686832906926000,2.709926025390625,-0.03802204132080078,-0.007347583770751953,-0.01617908477783203
1717686832916934400,2.719934326171875,-0.07911205291748047,-0.004009246826171875,0.019146710634231567
1717686832926942700,2.729942626953125,-0.08673095703125,-0.009768486022949219,0.020692378282546997
1717686832936951000,2.739950927734375,-0.11322212219238281,0.017906665802001953,-0.03013741970062256
1717686832946959400,2.74995947265625,-0.12543964385986328,0.050495147705078125,-0.03390999138355255
1717686832956967700,2.7599677734375,-0.09531879425048828,0.040735721588134766,-0.043389782309532166
1717686832966976000,2.76997607421875,0.014273643493652344,0.021910667419433594,0.007897645235061646
1717686832976984300,2.779984375,0.098724365234375,0.01234292984008789,0.03482931852340698
1717686832986992600,2.78999267578125,0.15386390686035156,-0.002532482147216797,0.04307430982589722
1717686832997001000,2.8000009765625,0.16600799560546875,-0.0037064552307128906,0.033127278089523315
1717686833007009300,2.81000927734375,0.12175273895263672,-0.014941215515136719,-0.013863563537597656
1717686833017017600,2.820017578125,0.021767616271972656,-0.04020404815673828,-0.045711174607276917
1717686833027026000,2.83002587890625,-0.053421974182128906,-0.03595161437988281,-0.025044381618499756
1717686833037034200,2.8400341796875,-0.04301166534423828,-0.030923843383789062,0.004652947187423706
1717686833047042600,2.85004248046875,-0.00931549072265625,-0.035210609436035156,0.00541764497756958
1717686833057051000,2.86005078125,-0.018492698669433594,-0.048938751220703125,0.024398118257522583
1717686833067059200,2.87005908203125,-0.06045722961425781,-0.010643959045410156,0.009451180696487427
1717686833077067500,2.880067626953125,-0.054747581481933594,0.003754138946533203,0.022171229124069214
1717686833087076000,2.890076171875,-0.01611614227294922,0.0036873817443847656,0.015563338994979858
1717686833097084400,2.90008447265625,-0.08627986907958984,-0.0013718605041503906,-0.028791844844818115
1717686833107092700,2.9100927734375,-0.1932849884033203,-0.029137134552001953,-0.016597002744674683
1717686833117101000,2.92010107421875,-0.26630496978759766,-0.021897315979003906,0.028124719858169556
1717686833127109400,2.930109375,-0.31568241119384766,-0.021869182586669922,-0.04118028283119202
1717686833137117700,2.94011767578125,-0.3374204635620117,-0.03297233581542969,-0.05309288203716278
1717686833147126000,2.9501259765625,-0.2989234924316406,-0.036382198333740234,-0.031977295875549316
1717686833157134300,2.96013427734375,-0.26705169677734375,-0.04644966125488281,0.002593129873275757
1717686833167142700,2.970142578125,-0.31681251525878906,-0.11061811447143555,0.017987877130508423
1717686833177151000,2.98015087890625,-0.4708271026611328,-0.1516127586364746,0.027591198682785034
1717686833187159300,2.9901591796875,-0.7047834396362305,-0.16776275634765625,-0.15165895223617554
1717686833197167600,3.000167724609375,-0.9524030685424805,-0.10089874267578125,-0.16217921674251556
1717686833207176000,3.010176025390625,-0.8416147232055664,-0.13095402717590332,-0.330629825592041
1717686833217184300,3.020184326171875,-0.7452945709228516,-0.07318615913391113,-0.22621311247348785
1717686833227192600,3.030192626953125,-0.5731983184814453,-0.13256049156188965,-0.10603144764900208
1717686833237201000,3.040200927734375,-0.4861030578613281,-0.1291971206665039,-0.02646416425704956
1717686833247209200,3.050209228515625,-0.22336578369140625,-0.06903243064880371,0.2755621671676636
1717686833257217500,3.060217529296875,0.2554798126220703,-0.09151840209960938,0.455768346786499
1717686833267225900,3.070225830078125,0.9524431228637695,-0.07466268539428711,0.5147725343704224
1717686833277234200,3.080234130859375,2.298956871032715,0.13681554794311523,0.24813616275787354
1717686833287242800,3.09024267578125,4.240689277648926,0.6011178493499756,-0.12843085825443268
1717686833297251000,3.1002509765625,7.364985466003418,1.0644652843475342,-0.6594159007072449
1717686833307259400,3.11025927734375,11.934975624084473,1.8760550022125244,-1.3005868196487427
1717686833317267700,3.120267822265625,16.681224822998047,1.970597267150879,-1.1549772024154663
1717686833327276000,3.130276123046875,19.581439971923828,0.9376785755157471,0.19700872898101807
1717686833337284400,3.140284423828125,20.22085952758789,-0.793442964553833,2.829871654510498
1717686833347292700,3.150292724609375,18.579593658447266,-3.252837896347046,4.215704441070557
1717686833357301000,3.160301025390625,15.653660774230957,-5.176300525665283,3.53286075592041
1717686833367309300,3.170309326171875,12.16832447052002,-6.567922592163086,2.0191168785095215
1717686833377317600,3.180317626953125,8.620650291442871,-7.620562553405762,0.8802607655525208
1717686833387326000,3.190325927734375,5.49553918838501,-8.30741024017334,0.10228270292282104
1717686833397334300,3.200334228515625,2.9199161529541016,-8.638703346252441,-0.7917410135269165
1717686833407342600,3.210342529296875,1.329357624053955,-8.294339179992676,-1.2192209959030151
1717686833417351000,3.220350830078125,0.8530383110046387,-8.687265396118164,-1.1713991165161133
1717686833427359200,3.230359130859375,-0.7546219825744629,-9.001834869384766,-0.3156518340110779
1717686833437367600,3.240367431640625,-2.424687385559082,-8.433554649353027,-0.17689824104309082
1717686833447376000,3.2503759765625,-3.8791985511779785,-7.8728837966918945,-0.4372408092021942
1717686833457384200,3.26038427734375,-5.029743194580078,-7.432841777801514,-0.9107557535171509
1717686833467392500,3.270392578125,-5.572188377380371,-6.599117755889893,-1.3820245265960693
1717686833477401000,3.280401123046875,-6.132042407989502,-6.802132606506348,-0.34167394042015076
1717686833487409400,3.290409423828125,-7.541523456573486,-6.955349922180176,0.57545405626297
1717686833497417700,3.300417724609375,-9.47230052947998,-6.1482391357421875,0.8275018334388733
1717686833507426000,3.310426025390625,-10.650065422058105,-5.160538196563721,0.2573399245738983
1717686833517434400,3.320434326171875,-10.762866973876953,-4.240933418273926,-0.4634886384010315
1717686833527442700,3.330442626953125,-10.134828567504883,-3.45452880859375,-0.729255735874176
1717686833537451000,3.340450927734375,-8.997780799865723,-2.973450183868408,-0.5438647270202637
1717686833547459300,3.350459228515625,-7.598191738128662,-2.756700038909912,-0.022452332079410553
1717686833557467600,3.360467529296875,-6.223839282989502,-2.522881507873535,0.18526875972747803
1717686833567476000,3.37047607421875,-5.391327381134033,-2.291567802429199,0.07631795108318329
1717686833577484300,3.380484375,-4.963419437408447,-2.0154290199279785,0.09058815985918045
1717686833587492600,3.39049267578125,-4.204736232757568,-1.8186469078063965,0.11421070992946625
1717686833597501000,3.4005009765625,-3.2184064388275146,-1.7050857543945312,0.1623436063528061
1717686833607509200,3.41050927734375,-2.4161720275878906,-1.4349365234375,0.4480718970298767
1717686833617517600,3.420517578125,-1.8918213844299316,-1.2468605041503906,0.6907596588134766
1717686833627526000,3.43052587890625,-1.7140469551086426,-1.1309814453125,1.0168819427490234
1717686833637534200,3.4405341796875,-1.5515239238739014,-0.9964218139648438,1.069846749305725
1717686833647542500,3.45054248046875,-1.5865445137023926,-0.7574186325073242,0.9118932485580444
1717686833657550800,3.46055078125,-1.8320649862289429,-0.5386829376220703,0.5802667140960693
1717686833667559400,3.470559326171875,-1.540818214416504,-0.4118480682373047,0.4979952275753021
1717686833677567700,3.480567626953125,-1.0988473892211914,-0.2809028625488281,0.631247341632843
1717686833687576000,3.490576171875,-0.8155182600021362,-0.19339656829833984,0.5397484302520752
1717686833697584400,3.50058447265625,-0.661628007888794,-0.11089038848876953,0.5770845413208008
1717686833707592700,3.5105927734375,-0.6417135000228882,-0.018947601318359375,0.4136320948600769
1717686833717601000,3.52060107421875,-0.7809700965881348,0.02524852752685547,0.04268196225166321
1717686833727609300,3.530609375,-0.90357905626297,0.03156089782714844,-0.14064478874206543
1717686833737617700,3.54061767578125,-1.0104771852493286,0.028972625732421875,-0.2817251682281494
1717686833747626000,3.5506259765625,-0.9591845870018005,0.046398162841796875,-0.3906324505805969
1717686833757634300,3.56063427734375,-0.8064185380935669,0.03632640838623047,-0.48239532113075256
1717686833767642600,3.570642578125,-0.8324865698814392,-0.005702018737792969,-0.3704947233200073
1717686833777651000,3.58065087890625,-1.1460803747177124,-0.16537189483642578,-0.16369971632957458
1717686833787659300,3.5906591796875,-1.8060566186904907,-0.32270050048828125,0.0006806701421737671
1717686833797667600,3.60066748046875,-2.7061171531677246,-0.5153350830078125,0.10884211957454681
1717686833807676000,3.610676025390625,-3.635615348815918,-0.7948226928710938,0.2376062273979187
1717686833817684200,3.620684326171875,-4.542577743530273,-1.0593194961547852,0.06668786704540253
1717686833827692500,3.630692626953125,-5.457439422607422,-1.2972841262817383,-0.22027283906936646
1717686833837700900,3.640700927734375,-6.189369201660156,-1.6112604141235352,-0.1330171376466751
1717686833847709200,3.650709228515625,-6.969693183898926,-2.2026891708374023,-0.22733265161514282
1717686833857717800,3.6607177734375,-7.376352310180664,-2.7264790534973145,-0.25544315576553345
1717686833867726000,3.67072607421875,-7.033668518066406,-3.2059555053710938,-0.17386788129806519
1717686833877734400,3.680734375,-6.14117956161499,-3.703667163848877,-0.15505482256412506
1717686833887742700,3.69074267578125,-5.801836013793945,-4.288161754608154,-0.08696591854095459
1717686833897751000,3.7007509765625,-4.993784427642822,-4.674389839172363,0.5614145994186401
1717686833907759400,3.71075927734375,-4.621118068695068,-5.381701469421387,1.1131830215454102
1717686833917767700,3.720767578125,-4.398118019104004,-5.96893310546875,1.6347947120666504
1717686833927776000,3.73077587890625,-4.094618797302246,-6.47343635559082,1.7823989391326904
1717686833937784300,3.740784423828125,-3.6155762672424316,-6.913227081298828,1.4318357706069946
1717686833947792600,3.750792724609375,-3.2003350257873535,-7.096462726593018,0.7870702743530273
1717686833957801000,3.760801025390625,-2.493499279022217,-7.221332550048828,-0.5837595462799072
1717686833967809300,3.770809326171875,-1.1430706977844238,-7.057215690612793,-1.406712293624878
1717686833977817600,3.780817626953125,1.0373802185058594,-6.644780158996582,-1.9924262762069702
1717686833987826000,3.790825927734375,3.696284294128418,-6.070339679718018,-2.731043577194214
1717686833997834200,3.800834228515625,6.849185943603516,-5.221048355102539,-3.1604270935058594
1717686834007842600,3.810842529296875,9.777386665344238,-4.238849639892578,-2.4051334857940674
1717686834017851000,3.820850830078125,11.91938304901123,-3.3177833557128906,-0.5306193828582764
1717686834027859200,3.830859130859375,13.158116340637207,-2.7431087493896484,1.0002164840698242
1717686834037867500,3.840867431640625,13.190742492675781,-2.2499489784240723,1.8791749477386475
1717686834047876000,3.8508759765625,12.248250007629395,-1.5028502941131592,2.5507349967956543
1717686834057884400,3.860884521484375,10.998175621032715,-0.8336920738220215,2.3370184898376465
1717686834067892700,3.870892822265625,9.535462379455566,-0.2927732467651367,1.4712622165679932
1717686834077901000,3.880901123046875,7.850519180297852,0.04769015312194824,1.0425156354904175
1717686834087909400,3.890909423828125,6.062911033630371,0.04477739334106445,0.7631365060806274
1717686834097917700,3.900917724609375,4.311142921447754,0.005387544631958008,0.7347527742385864
1717686834107926000,3.910926025390625,2.81036376953125,-0.05211138725280762,0.6046077609062195
1717686834117934300,3.920934326171875,1.6800556182861328,-0.04883742332458496,0.24319349229335785
1717686834127942700,3.930942626953125,1.097762107849121,0.09472942352294922,-0.24275842308998108
1717686834137951000,3.940950927734375,0.9796886444091797,0.3095667362213135,-0.5953028202056885
1717686834147959300,3.950959228515625,1.1912126541137695,0.5424470901489258,-0.8152401447296143
1717686834157967600,3.960967529296875,1.6569671630859375,0.5689291954040527,-0.7946399450302124
1717686834167976000,3.970975830078125,2.2261810302734375,0.5161170959472656,-0.5941402912139893
1717686834177984300,3.980984375,2.8441953659057617,0.5141491889953613,-0.11746524274349213
1717686834187992600,3.99099267578125,3.078396797180176,0.4746391773223877,0.0785895437002182
1717686834198001000,4.0010009765625,2.887653350830078,0.4136514663696289,-0.08574046194553375
1717686834208009200,4.01100927734375,2.3873977661132812,0.3751962184906006,-0.19370143115520477
1717686834218017500,4.021017578125,1.8498573303222656,0.2905905246734619,-0.023134857416152954
1717686834228025900,4.03102587890625,1.2648258209228516,0.14858293533325195,0.24449479579925537
1717686834238034200,4.0410341796875,0.6647405624389648,0.04391598701477051,0.2696411907672882
1717686834248042800,4.051042724609375,0.115203857421875,-0.04805755615234375,0.051745496690273285
1717686834258051000,4.061051025390625,-0.46661376953125,-0.13266658782958984,-0.19562309980392456
1717686834268059400,4.071059326171875,-0.8764324188232422,-0.21643948554992676,-0.25434407591819763
1717686834278067700,4.081067626953125,-1.024515151977539,-0.25513529777526855,-0.2772905230522156
1717686834288076000,4.091075927734375,-1.0262212753295898,-0.27765893936157227,-0.20109650492668152
1717686834298084400,4.10108447265625,-1.0441532135009766,-0.27999258041381836,-0.14932967722415924
1717686834308092700,4.1110927734375,-1.0685701370239258,-0.2675814628601074,-0.1991020143032074
1717686834318101000,4.12110107421875,-1.0131549835205078,-0.2892262935638428,-0.13994954526424408
1717686834328109300,4.131109375,-1.0021095275878906,-0.2785770893096924,-0.021939018741250038
1717686834338117600,4.14111767578125,-1.0544013977050781,-0.2502620220184326,0.09467308223247528
1717686834348126000,4.1511259765625,-1.1129941940307617,-0.2559192180633545,0.09962522238492966
1717686834358134300,4.16113427734375,-1.1111211776733398,-0.2427506446838379,0.2123510241508484
1717686834368142600,4.171142578125,-1.0870990753173828,-0.19191384315490723,0.2607578635215759
1717686834378151000,4.18115087890625,-1.041189193725586,-0.13646745681762695,0.11749650537967682
1717686834388159200,4.1911591796875,-0.9495315551757812,-0.0621943473815918,0.034507766366004944
1717686834398167600,4.20116748046875,-0.8167858123779297,-0.012716531753540039,0.13637864589691162
1717686834408175900,4.21117578125,-0.6475620269775391,-0.04597306251525879,0.19038636982440948
1717686834418184200,4.22118408203125,-0.42238616943359375,-0.07694339752197266,0.2516629695892334
1717686834428192500,4.231192626953125,-0.2600088119506836,-0.07412886619567871,0.24427196383476257
1717686834438201000,4.241201171875,-0.1551666259765625,-0.047936201095581055,0.19609564542770386
1717686834448209400,4.25120947265625,-0.1552896499633789,-0.056214094161987305,0.055143244564533234
1717686834458217700,4.2612177734375,-0.13593387603759766,-0.05110478401184082,-0.07259038090705872
1717686834468226000,4.27122607421875,-0.03054046630859375,0.0014760494232177734,-0.16057461500167847
1717686834478234400,4.281234375,0.01706409454345703,0.001878499984741211,-0.20418089628219604
1717686834488242700,4.29124267578125,0.1891193389892578,-0.08465075492858887,-0.07642000913619995
1717686834498251000,4.3012509765625,0.4894065856933594,-0.32982945442199707,0.5317057967185974
1717686834508259300,4.31125927734375,0.3240337371826172,-0.003744840621948242,-0.12823069095611572
1717686834518267600,4.321267578125,-0.04165458679199219,-0.0027692317962646484,-0.3949446380138397
1717686834528276000,4.33127587890625,-0.3462991714477539,0.1127769947052002,-0.0813344419002533
1717686834538284300,4.3412841796875,-0.2965431213378906,0.30088233947753906,-0.22327612340450287
1717686834548292600,4.351292724609375,0.08648967742919922,0.48284912109375,-0.6231876015663147
1717686834558301000,4.361301025390625,0.6668224334716797,0.38822388648986816,-0.6261184811592102
1717686834568309200,4.371309326171875,0.9480209350585938,-0.023939132690429688,0.06968045979738235
