time,seconds_elapsed,z,y,x
1712257350423696100,0.152696044921875,2.69722843170166,-4.959863662719727,-1.6491512060165405
1712257350433695000,0.162695068359375,2.6821770668029785,-4.929000377655029,-1.6930714845657349
1712257350443694600,0.172694580078125,2.7056970596313477,-4.919434547424316,-1.8688523769378662
1712257350453694000,0.18269384765625,2.614635944366455,-4.864200115203857,-1.8676488399505615
1712257350463693300,0.192693359375,2.589977264404297,-4.858361721038818,-1.849233627319336
1712257350473692700,0.202692626953125,2.5593509674072266,-4.824951171875,-1.797121286392212
1712257350483692000,0.212692138671875,2.5535831451416016,-4.778142929077148,-1.7515895366668701
1712257350493691400,0.22269140625,2.5631537437438965,-4.761117935180664,-1.7580797672271729
1712257350503691000,0.23269091796875,2.600492477416992,-4.774346828460693,-1.7999153137207031
1712257350513690400,0.2426904296875,2.664076805114746,-4.833043575286865,-1.824750542640686
1712257350523689700,0.252689697265625,2.661271095275879,-4.856478691101074,-1.8042371273040771
1712257350533689000,0.262689208984375,2.642432689666748,-4.818312644958496,-1.7650072574615479
1712257350543688400,0.2726884765625,2.6168370246887207,-4.7733683586120605,-1.7786250114440918
1712257350553687800,0.282687744140625,2.6200265884399414,-4.733327865600586,-1.722652792930603
1712257350563687200,0.292687255859375,2.6067185401916504,-4.724488258361816,-1.6792387962341309
1712257350573686500,0.3026865234375,2.547983169555664,-4.711054801940918,-1.7025058269500732
1712257350583686000,0.312685791015625,2.5249576568603516,-4.721710205078125,-1.7677905559539795
1712257350593685200,0.322685302734375,2.4635825157165527,-4.687008380889893,-1.7439630031585693
1712257350603684600,0.3326845703125,2.4789977073669434,-4.700325012207031,-1.7394646406173706
1712257350613684200,0.342684326171875,2.4703845977783203,-4.69429349899292,-1.7591713666915894
1712257350623683300,0.352683349609375,2.468881130218506,-4.704773426055908,-1.7386128902435303
1712257350633682700,0.3626826171875,2.4578957557678223,-4.705643177032471,-1.689721941947937
1712257350643682000,0.37268212890625,2.446901321411133,-4.687335968017578,-1.6743757724761963
1712257350653681200,0.38268115234375,2.0864429473876953,-4.280752182006836,-1.5545270442962646
1712257350663680500,0.392680419921875,1.8002090454101562,-3.953953504562378,-1.4663574695587158
1712257350673679600,0.4026796875,1.5726661682128906,-3.677429676055908,-1.3768038749694824
1712257350683678700,0.4126787109375,1.3703432083129883,-3.3776133060455322,-1.274073600769043
1712257350693678000,0.422677978515625,1.1634893417358398,-3.064606189727783,-1.1555169820785522
1712257350703677200,0.43267724609375,0.990452766418457,-2.791436195373535,-1.0571088790893555
1712257350713676300,0.44267626953125,0.8059787750244141,-2.557291269302368,-0.9926378130912781
1712257350723675400,0.45267529296875,0.7017927169799805,-2.3245925903320312,-0.8901338577270508
1712257350733674500,0.462674560546875,0.5646257400512695,-2.084822654724121,-0.7426612377166748
1712257350743673600,0.472673583984375,0.45914363861083984,-1.8421909809112549,-0.5837136507034302
1712257350753672700,0.482672607421875,0.40486717224121094,-1.622126817703247,-0.517063319683075
1712257350763671600,0.492671630859375,0.3494882583618164,-1.44985830783844,-0.4480929970741272
1712257350773670700,0.502670654296875,0.3080587387084961,-1.3266609907150269,-0.4330969452857971
1712257350783669800,0.512669677734375,0.3053312301635742,-1.2101211547851562,-0.42819344997406006
1712257350793668600,0.522668701171875,0.2827577590942383,-1.1399213075637817,-0.4092807173728943
1712257350803667500,0.53266748046875,0.2462625503540039,-1.0162075757980347,-0.35549497604370117
1712257350813666600,0.54266650390625,0.2022533416748047,-0.8976798057556152,-0.31006771326065063
1712257350823665400,0.55266552734375,0.17641353607177734,-0.8074021339416504,-0.28689688444137573
1712257350833664300,0.562664306640625,0.1275043487548828,-0.7135196924209595,-0.2639794945716858
1712257350843663000,0.5726630859375,0.14365196228027344,-0.6872546672821045,-0.26931723952293396
1712257350853662000,0.582661865234375,0.10461902618408203,-0.6242722272872925,-0.24069273471832275
1712257350863660800,0.592660888671875,0.1275043487548828,-0.5793242454528809,-0.2333514392375946
1712257350873659600,0.60265966796875,0.17142391204833984,-0.49948227405548096,-0.20918214321136475
1712257350883658500,0.612658447265625,0.15728092193603516,-0.43273985385894775,-0.17560315132141113
1712257350893657000,0.622656982421875,0.13039398193359375,-0.39099574089050293,-0.13911497592926025
1712257350903656000,0.632656005859375,0.08322334289550781,-0.3491772413253784,-0.12793290615081787
1712257350913654500,0.642654541015625,0.10643291473388672,-0.3205838203430176,-0.16289585828781128
1712257350923653400,0.6526533203125,0.11356830596923828,-0.30908071994781494,-0.15010333061218262
1712257350933652000,0.66265185546875,0.12601089477539062,-0.3091319799423218,-0.15420597791671753
1712257350943650800,0.67265087890625,0.1747903823852539,-0.29402661323547363,-0.15360495448112488
1712257350953649400,0.6826494140625,0.16895103454589844,-0.28788185119628906,-0.14368173480033875
1712257350963648300,0.692648193359375,0.1875133514404297,-0.22854399681091309,-0.14849725365638733
1712257350973646800,0.702646728515625,0.1610879898071289,-0.20750188827514648,-0.12691250443458557
1712257350983645700,0.712645751953125,0.08001232147216797,-0.15256226062774658,-0.08843216300010681
1712257350993644500,0.72264453125,-0.007769584655761719,-0.1166914701461792,-0.040608733892440796
1712257351003643100,0.73264306640625,-0.07593059539794922,-0.09250128269195557,-0.02489238977432251
1712257351013642000,0.74264208984375,-0.11979866027832031,-0.09374129772186279,-0.05331513285636902
1712257351023640600,0.752640625,-0.05809593200683594,-0.09107840061187744,-0.05137670040130615
1712257351033639400,0.762639404296875,-0.015340805053710938,-0.0960913896560669,-0.01052907109260559
1712257351043638300,0.77263818359375,-0.01999664306640625,-0.10561370849609375,-0.0003902912139892578
1712257351053636900,0.782636962890625,-0.045764923095703125,-0.09574258327484131,0.022827178239822388
1712257351063635700,0.7926357421875,-0.059174537658691406,-0.06610751152038574,0.03953990340232849
1712257351073634300,0.80263427734375,-0.08198261260986328,-0.07553291320800781,-0.009374678134918213
1712257351083633200,0.812633056640625,-0.064178466796875,-0.08923125267028809,-0.06760594248771667
1712257351093632000,0.822632080078125,-0.010622024536132812,-0.11404979228973389,-0.06291830539703369
1712257351103630600,0.832630615234375,-0.05295372009277344,-0.1644289493560791,-0.0725780725479126
1712257351113629400,0.84262939453125,-0.004433631896972656,-0.08703184127807617,-0.029535889625549316
1712257351123628300,0.852628173828125,0.020369529724121094,-0.051404476165771484,-0.03290843963623047
1712257351133627000,0.862626953125,0.035823822021484375,-0.05054020881652832,-0.015247255563735962
1712257351143625700,0.872625732421875,-0.0011882781982421875,-0.03405952453613281,0.059419184923172
1712257351153624600,0.88262451171875,-0.047562599182128906,-0.030756235122680664,0.052178800106048584
1712257351163623200,0.892623046875,-0.12494182586669922,-0.025690913200378418,0.03498294949531555
1712257351173622000,0.9026220703125,-0.12324237823486328,-0.006674408912658691,0.020140737295150757
1712257351183620600,0.91262060546875,-0.10476016998291016,-0.028411388397216797,-0.004541635513305664
1712257351193619500,0.922619384765625,-0.07200050354003906,-0.04713237285614014,0.009033411741256714
1712257351203618300,0.932618408203125,-0.04891014099121094,-0.03162121772766113,0.010298848152160645
1712257351213617000,0.942616943359375,-0.0018186569213867188,-0.004500865936279297,-0.0027273893356323242
1712257351223615700,0.95261572265625,0.05742454528808594,0.01186072826385498,-0.03014788031578064
1712257351233614600,0.962614501953125,0.021167755126953125,-0.02381157875061035,0.002246469259262085
1712257351243613200,0.97261328125,-0.0005083084106445312,-0.01526331901550293,0.015001893043518066
1712257351253612000,0.982612060546875,0.009019851684570312,0.02639305591583252,0.051422953605651855
1712257351263610600,0.992610595703125,0.07604503631591797,0.03199958801269531,0.01570713520050049
1712257351273609500,1.002609375,0.09039020538330078,-0.0270082950592041,-0.024764060974121094
1712257351283608300,1.0126083984375,0.1092691421508789,-0.07515978813171387,-0.04242473840713501
1712257351293607000,1.02260693359375,0.0992727279663086,-0.09169864654541016,-0.04667845368385315
1712257351303605800,1.032605712890625,0.034000396728515625,-0.08582150936126709,-0.042195916175842285
1712257351313604400,1.042604248046875,-0.016999244689941406,-0.0029932260513305664,0.0038895905017852783
1712257351323603000,1.05260302734375,-0.019957542419433594,0.05274152755737305,0.02521917223930359
1712257351333601800,1.062601806640625,0.04680919647216797,0.040027618408203125,-0.002941310405731201
1712257351343600600,1.0726005859375,0.09467411041259766,-0.029203176498413086,-0.027088582515716553
1712257351353599200,1.08259912109375,0.0779561996459961,-0.07963311672210693,-0.06818953156471252
1712257351363598000,1.09259814453125,-0.0011529922485351562,-0.08175194263458252,-0.055054277181625366
1712257351373596700,1.1025966796875,-0.11399364471435547,-0.06151425838470459,-0.03287062048912048
1712257351383595500,1.112595458984375,-0.2126474380493164,-0.014128446578979492,0.01926901936531067
1712257351393594000,1.122593994140625,-0.1678028106689453,0.05845606327056885,0.039742887020111084
1712257351403593000,1.132593017578125,-0.07506084442138672,0.07657241821289062,0.06536144018173218
1712257351413591600,1.142591552734375,0.05392646789550781,0.02646923065185547,0.0445997416973114
1712257351423590400,1.15259033203125,0.13292980194091797,-0.03238081932067871,0.0009962022304534912
1712257351433589200,1.16258935546875,0.06610298156738281,-0.10231709480285645,-0.04975059628486633
1712257351443587800,1.172587890625,-0.019942283630371094,-0.09829592704772949,-0.05287769436836243
1712257351453586700,1.182586669921875,-0.07501029968261719,-0.02198970317840576,-0.03997638821601868
1712257351463585500,1.19258544921875,-0.03674793243408203,-0.000493168830871582,-0.012529224157333374
1712257351473584000,1.202584228515625,0.039760589599609375,-0.014181733131408691,-0.05067470669746399
1712257351483583000,1.2125830078125,0.09222888946533203,-0.02244102954864502,-0.009731322526931763
1712257351493581800,1.222581787109375,0.13753795623779297,-0.03786921501159668,-0.00523790717124939
1712257351503580400,1.232580322265625,0.1205892562866211,-0.0509183406829834,0.028196245431900024
1712257351513579300,1.242579345703125,0.04618072509765625,-0.023267149925231934,0.04001593589782715
1712257351523577900,1.252577880859375,0.03644084930419922,0.02327406406402588,0.04497140645980835
1712257351533576700,1.26257666015625,0.03395366668701172,0.0813518762588501,0.06418982148170471
1712257351543575600,1.272575439453125,0.1443004608154297,0.09961020946502686,0.08411246538162231
1712257351553574100,1.28257421875,0.24788475036621094,0.11805307865142822,0.13324576616287231
1712257351563573000,1.292572998046875,0.38311195373535156,0.13374292850494385,0.16577544808387756
1712257351573571600,1.302571533203125,0.40624237060546875,0.09888744354248047,0.08275824785232544
1712257351583570400,1.3125703125,0.4507417678833008,0.04366421699523926,0.0765833854675293
1712257351593569300,1.3225693359375,0.7324285507202148,0.1684056520462036,0.2004510760307312
1712257351603568000,1.332568115234375,1.1148996353149414,0.3225581645965576,0.4115602672100067
1712257351613567000,1.34256689453125,1.3567800521850586,0.3862438201904297,0.4289283752441406
1712257351623565800,1.35256591796875,1.4848041534423828,0.38012921810150146,0.324866384267807
1712257351633565000,1.36256494140625,1.614436149597168,0.320218563079834,0.27975136041641235
1712257351643563800,1.372563720703125,1.6240787506103516,0.259631872177124,0.22539308667182922
1712257351653563000,1.38256298828125,1.968796730041504,0.3063061237335205,0.32273241877555847
1712257351663562000,1.39256201171875,2.108035087585449,0.2200387716293335,0.2017420530319214
1712257351673560800,1.402560791015625,2.0256824493408203,0.09663879871368408,0.17666250467300415
1712257351683560000,1.412559814453125,1.9259023666381836,0.11626935005187988,0.3146723508834839
1712257351693559000,1.42255908203125,1.8934946060180664,0.09121155738830566,0.6504908800125122
1712257351703558100,1.43255810546875,2.0011281967163086,0.16524481773376465,0.9377474784851074
1712257351713557200,1.44255712890625,2.1536664962768555,0.3224208354949951,0.9443041086196899
1712257351723556400,1.452556396484375,2.2302064895629883,0.3803226947784424,0.6983219385147095
1712257351733555500,1.462555419921875,2.3324947357177734,0.3026998043060303,0.5887298583984375
1712257351743554600,1.472554443359375,2.4642906188964844,0.2142176628112793,0.7319130897521973
1712257351753553700,1.4825537109375,2.272676467895508,-0.1386706829071045,0.3704814314842224
1712257351763552800,1.492552734375,1.9292268753051758,-0.5691475868225098,0.14728038012981415
1712257351773551900,1.5025517578125,2.059345245361328,-0.7010235786437988,0.008703823201358318
1712257351783551000,1.512551025390625,1.6107702255249023,-0.8155710697174072,-0.054273296147584915
1712257351793550000,1.522550048828125,0.9217500686645508,-0.8361468315124512,0.07786408811807632
1712257351803549200,1.532549072265625,0.2933769226074219,-0.682295560836792,0.30725809931755066
1712257351813548300,1.54254833984375,-0.017530441284179688,-0.6536674499511719,0.19632688164710999
1712257351823547400,1.55254736328125,0.45664024353027344,-0.711998462677002,0.1386977732181549
1712257351833546500,1.56254638671875,1.2661733627319336,-0.7039098739624023,0.4334157705307007
1712257351843545600,1.572545654296875,2.1714930534362793,-0.7117118835449219,0.5678590536117554
1712257351853544700,1.582544677734375,2.5609216690063477,-0.7307815551757812,0.5370420813560486
1712257351863543800,1.592543701171875,2.338348388671875,-0.9052410125732422,0.012467265129089355
1712257351873543000,1.60254296875,1.828885555267334,-1.4226717948913574,-0.7894663214683533
1712257351883542000,1.6125419921875,0.23194026947021484,-2.003145217895508,-1.6021759510040283
1712257351893540900,1.622540771484375,-2.2529773712158203,-2.4765329360961914,-2.056772470474243
1712257351903540000,1.6325400390625,-4.5775580406188965,-2.5036892890930176,-2.1819095611572266
1712257351913538800,1.642538818359375,-5.62968111038208,-2.3068833351135254,-1.9618232250213623
1712257351923538000,1.652537841796875,-5.8491291999816895,-1.8498425483703613,-0.9184210300445557
1712257351933536800,1.662536865234375,-5.122941493988037,-1.2133398056030273,0.2018314003944397
1712257351943535600,1.67253564453125,-3.3459677696228027,-0.9218988418579102,0.5285052061080933
1712257351953534500,1.682534423828125,-2.007551908493042,-1.0802536010742188,0.6329898238182068
1712257351963533300,1.692533203125,-1.9088811874389648,-1.2425570487976074,0.6093285083770752
1712257351973532000,1.702531982421875,-2.4433224201202393,-1.4776616096496582,0.02545139193534851
1712257351983530800,1.71253076171875,-3.159411668777466,-1.8282885551452637,-0.862892746925354
1712257351993529300,1.722529296875,-3.7180471420288086,-2.021425724029541,-1.5248582363128662
1712257352003528200,1.732528076171875,-3.8618788719177246,-1.894505500793457,-1.671468734741211
1712257352013526800,1.74252685546875,-3.2681002616882324,-1.443563461303711,-1.6128106117248535
1712257352023525600,1.752525634765625,-2.42108416557312,-1.2025642395019531,-1.3273403644561768
1712257352033524200,1.762524169921875,-1.7102668285369873,-1.183647632598877,-0.7575588226318359
1712257352043523000,1.772523193359375,-0.9713099002838135,-1.1550188064575195,-0.2842174172401428
1712257352053521700,1.782521728515625,0.0652017593383789,-0.7776708602905273,0.37371474504470825
1712257352063520500,1.7925205078125,0.7921628952026367,-0.3569784164428711,0.7089197635650635
1712257352073519400,1.802519287109375,1.0169658660888672,-0.12765979766845703,0.6107798218727112
1712257352083518200,1.812518310546875,0.4234137535095215,0.04769611358642578,0.582876443862915
1712257352093516800,1.822516845703125,-0.18918752670288086,0.26289939880371094,0.4315897226333618
1712257352103515600,1.832515625,-0.1985759735107422,0.3917503356933594,0.39185434579849243
1712257352113514200,1.84251416015625,0.20745038986206055,0.3081178665161133,0.2560465335845947
1712257352123513000,1.85251318359375,0.8212890625,0.4952707290649414,0.38821709156036377
1712257352133512000,1.862511962890625,0.9463753700256348,0.7109851837158203,0.6234267354011536
1712257352143510500,1.872510498046875,0.659027099609375,0.8464412689208984,0.8062054514884949
1712257352153509400,1.88250927734375,0.29494190216064453,1.0153207778930664,1.0843578577041626
1712257352163508000,1.892508056640625,0.11135149002075195,1.0233840942382812,1.1663551330566406
1712257352173506800,1.9025068359375,-0.12947750091552734,0.9058609008789062,1.0992649793624878
1712257352183505400,1.91250537109375,-0.5797977447509766,0.7185707092285156,0.8899686336517334
1712257352193504300,1.922504150390625,-0.9925065040588379,0.4936809539794922,0.6863914132118225
1712257352203503000,1.932503173828125,-1.2699270248413086,0.2591829299926758,0.49984484910964966
1712257352213501700,1.942501708984375,-1.3755874633789062,0.12150192260742188,0.4026933014392853
1712257352223500500,1.95250048828125,-1.2852575778961182,-0.0080413818359375,0.39472347497940063
1712257352233499400,1.96249951171875,-1.1717431545257568,-0.16159629821777344,0.4144909679889679
1712257352243498200,1.972498291015625,-1.1261334419250488,-0.2853384017944336,0.378055602312088
1712257352253496800,1.982496826171875,-1.257558822631836,-0.3725433349609375,0.2988094389438629
1712257352263495700,1.99249560546875,-1.450507402420044,-0.4732522964477539,0.15191234648227692
1712257352273494300,2.002494384765625,-1.708733320236206,-0.6669116020202637,-0.12225129455327988
1712257352283493000,2.0124931640625,-1.9097657203674316,-0.8323516845703125,-0.3366456627845764
1712257352293491700,2.02249169921875,-2.154047966003418,-0.9893398284912109,-0.4141325354576111
1712257352303490600,2.032490478515625,-2.254798173904419,-1.1214895248413086,-0.3678072988986969
1712257352313489400,2.042489501953125,-2.0237224102020264,-1.1054201126098633,-0.25260719656944275
1712257352323488000,2.052488037109375,-1.5194339752197266,-0.9266629219055176,-0.01443549245595932
1712257352333486800,2.06248681640625,-0.9924845695495605,-0.8672170639038086,0.14248035848140717
1712257352343485700,2.072485595703125,-0.49494409561157227,-0.8927698135375977,0.14505429565906525
1712257352353484300,2.082484375,-0.11132669448852539,-1.0176610946655273,0.0512109100818634
1712257352363483100,2.092483154296875,0.15950679779052734,-0.9968490600585938,-0.06871821731328964
1712257352373481700,2.102481689453125,0.4656944274902344,-0.8665947914123535,-0.24967887997627258
1712257352383480600,2.11248046875,0.35650205612182617,-0.7735676765441895,-0.32564306259155273
1712257352393479200,2.122479248046875,0.16796207427978516,-0.7660322189331055,-0.31348931789398193
1712257352403477800,2.132477783203125,0.1150350570678711,-0.6735529899597168,-0.3163195848464966
1712257352413476600,2.1424765625,0.1416640281677246,-0.5362434387207031,-0.2542934715747833
1712257352423475500,2.152475341796875,0.3126802444458008,-0.4506039619445801,-0.04467559605836868
1712257352433474000,2.16247412109375,0.6954407691955566,-0.4268455505371094,0.2323976457118988
1712257352443472600,2.17247265625,1.0544500350952148,-0.4667329788208008,0.2791575789451599
1712257352453471500,2.182471435546875,1.3341412544250488,-0.46219635009765625,0.1895819902420044
1712257352463470300,2.19247021484375,1.4444379806518555,-0.4266223907470703,0.06867672502994537
1712257352473469000,2.202468994140625,1.4507169723510742,-0.38301563262939453,0.06381195783615112
1712257352483467800,2.2124677734375,1.2663078308105469,-0.4126729965209961,-0.0809187963604927
1712257352493466600,2.222466552734375,1.1138877868652344,-0.44420289993286133,-0.17184315621852875
1712257352503465200,2.23246533203125,0.9743719100952148,-0.33922910690307617,-0.2169557511806488
1712257352513464000,2.242464111328125,0.8557424545288086,-0.253908634185791,-0.21340849995613098
1712257352523463000,2.252462890625,0.8826828002929688,-0.28154659271240234,-0.252436101436615
1712257352533461500,2.26246142578125,0.9232368469238281,-0.2476496696472168,-0.09774354100227356
1712257352543460400,2.27246044921875,0.7717304229736328,-0.18446016311645508,0.1717860996723175
1712257352553459000,2.282458984375,0.552525520324707,-0.07342720031738281,0.42909500002861023
1712257352563457800,2.292457763671875,0.3395719528198242,0.03723430633544922,0.560474157333374
1712257352573456600,2.30245654296875,0.08672714233398438,0.09522390365600586,0.5605362057685852
1712257352583455200,2.312455322265625,-0.12408256530761719,0.1128239631652832,0.29514849185943604
1712257352593454000,2.3224541015625,-0.1705760955810547,0.03176736831665039,-0.035159796476364136
1712257352603453000,2.332452880859375,-0.09981060028076172,-0.18310880661010742,-0.3119431734085083
1712257352613451500,2.342451416015625,-0.11605453491210938,-0.3982365131378174,-0.5228795409202576
1712257352623450400,2.352450439453125,-0.3470592498779297,-0.5037546157836914,-0.5630497932434082
1712257352633449200,2.36244921875,-0.6484813690185547,-0.5586330890655518,-0.4881318211555481
1712257352643447800,2.37244775390625,-0.7893104553222656,-0.5121583938598633,-0.2715238630771637
1712257352653446700,2.38244677734375,-0.6642656326293945,-0.36346960067749023,-0.12728622555732727
1712257352663445200,2.3924453125,-0.2318563461303711,-0.21689510345458984,0.060782402753829956
1712257352673444000,2.402444091796875,0.25005435943603516,-0.1290435791015625,0.24841532111167908
1712257352683443000,2.41244287109375,0.36858654022216797,-0.1083688735961914,0.4439045786857605
1712257352693441500,2.422441650390625,0.25824546813964844,-0.10718321800231934,0.4867478609085083
1712257352703440600,2.432440673828125,0.040767669677734375,-0.17586088180541992,0.2549257278442383
1712257352713439500,2.442439453125,-0.3467845916748047,-0.37050628662109375,0.044522106647491455
1712257352723438300,2.452438232421875,-0.3837299346923828,-0.43393754959106445,0.03709426522254944
1712257352733437400,2.4624375,-0.006566047668457031,-0.40741658210754395,-0.1668788194656372
1712257352743436300,2.472436279296875,0.4993124008178711,-0.3743774890899658,-0.35398924350738525
1712257352753435400,2.482435302734375,0.7012529373168945,-0.3411984443664551,-0.4000065326690674
1712257352763434500,2.4924345703125,0.7524862289428711,-0.30505847930908203,-0.3953675329685211
1712257352773433300,2.502433349609375,0.7164316177368164,-0.15825247764587402,-0.3799852430820465
1712257352783432400,2.512432373046875,0.5962753295898438,-0.05528402328491211,-0.2783181667327881
1712257352793431600,2.522431640625,0.47559070587158203,-0.14051389694213867,0.01779031753540039
1712257352803430700,2.5324306640625,0.3985557556152344,-0.270652174949646,0.28935229778289795
1712257352813429800,2.5424296875,0.34183788299560547,-0.3292074203491211,0.3759186267852783
1712257352823428600,2.5524287109375,0.1914958953857422,-0.32778918743133545,0.35974395275115967
1712257352833427700,2.562427734375,0.04769420623779297,-0.3035670518875122,0.17676401138305664
1712257352843426800,2.5724267578125,0.018021583557128906,-0.2655069828033447,-0.05425679683685303
1712257352853426000,2.582426025390625,0.12195205688476562,-0.22587370872497559,-0.31442371010780334
1712257352863425000,2.592425048828125,0.10629463195800781,-0.14547955989837646,-0.31253060698509216
1712257352873424000,2.602423828125,0.2446603775024414,-0.32924437522888184,-0.30988696217536926
1712257352883423000,2.612423095703125,0.17572498321533203,-0.3071620464324951,-0.14044198393821716
1712257352893422000,2.622422119140625,0.1940631866455078,-0.20914149284362793,0.0395817756652832
1712257352903421200,2.632421142578125,0.2875041961669922,-0.08457469940185547,0.1892431378364563
1712257352913420300,2.642420166015625,0.5157442092895508,-0.009606361389160156,0.1847240924835205
1712257352923419100,2.652419189453125,0.747222900390625,-0.06646120548248291,0.06594491004943848
1712257352933418200,2.662418212890625,0.7042999267578125,-0.12261343002319336,0.037476420402526855
1712257352943417300,2.672417236328125,0.6431512832641602,-0.1287977695465088,-0.007342278957366943
1712257352953416400,2.68241650390625,0.6742887496948242,-0.07000267505645752,-0.010522425174713135
1712257352963415600,2.69241552734375,0.8123083114624023,0.009555816650390625,0.00017279386520385742
1712257352973414400,2.702414306640625,0.8129072189331055,0.020831584930419922,0.015542864799499512
1712257352983413500,2.71241357421875,0.5514259338378906,0.00630950927734375,0.12649798393249512
1712257352993412600,2.72241259765625,0.29311180114746094,0.08984410762786865,0.25126785039901733
1712257353003411500,2.732411376953125,0.18819904327392578,0.12199282646179199,0.282336950302124
1712257353013410300,2.742410400390625,0.40157032012939453,0.11785244941711426,0.21699494123458862
1712257353023409200,2.7524091796875,0.7514972686767578,0.08666682243347168,0.08049744367599487
1712257353033408000,2.762407958984375,0.8865032196044922,-0.00732731819152832,-0.07431292533874512
1712257353043406800,2.77240673828125,0.758854866027832,-0.13751190900802612,-0.17267921566963196
1712257353053405700,2.78240576171875,0.5528640747070312,-0.11967873573303223,-0.05582663416862488
1712257353063404300,2.792404296875,0.3401784896850586,-0.07578998804092407,0.04963970184326172
1712257353073403100,2.802403076171875,0.1682443618774414,-0.004408836364746094,0.08711528778076172
1712257353083401700,2.812401611328125,0.11849117279052734,0.10528743267059326,0.05868631601333618
1712257353093400600,2.822400634765625,0.17654037475585938,0.1336500644683838,0.012344539165496826
1712257353103399400,2.8323994140625,0.17941951751708984,0.10053098201751709,-0.007242977619171143
1712257353113398000,2.84239794921875,0.07920265197753906,0.05852091312408447,0.05824226140975952
1712257353123396600,2.852396728515625,-0.08821773529052734,0.04537498950958252,0.049841463565826416
1712257353133395500,2.8623955078125,-0.2318744659423828,0.03250586986541748,0.0034906864166259766
1712257353143394000,2.87239404296875,-0.24880123138427734,0.03964364528656006,-0.06530460715293884
1712257353153393000,2.882392822265625,-0.1435842514038086,-0.019320011138916016,-0.10538917779922485
1712257353163391500,2.8923916015625,-0.02368640899658203,-0.021531105041503906,-0.023022592067718506
1712257353173390300,2.902390380859375,0.03922271728515625,-0.02883732318878174,0.005656838417053223
1712257353183389000,2.912388916015625,-0.0005044937133789062,-0.06262040138244629,-0.0070972442626953125
1712257353193387800,2.9223876953125,-0.0904378890991211,-0.07141983509063721,-0.006411492824554443
1712257353203386600,2.93238671875,-0.19248104095458984,-0.10637247562408447,-0.10396838188171387
1712257353213385200,2.94238525390625,-0.24689865112304688,-0.13254034519195557,-0.2142144739627838
1712257353223384000,2.952384033203125,-0.14122962951660156,-0.15579044818878174,-0.2572145164012909
1712257353233383000,2.9623828125,-0.04775524139404297,-0.15697693824768066,-0.14405786991119385
1712257353243381800,2.9723818359375,0.07315635681152344,-0.08665555715560913,0.012443304061889648
1712257353253380400,2.98238037109375,0.12975311279296875,0.010536670684814453,0.08770769834518433
1712257353263379200,2.992379150390625,0.02874469757080078,0.08781158924102783,0.15451931953430176
1712257353273377800,3.002377685546875,-0.11019039154052734,0.12588036060333252,0.16347968578338623
1712257353283376600,3.012376708984375,-0.10274124145507812,0.1376183032989502,0.10644853115081787
1712257353293375200,3.022375244140625,0.022278785705566406,0.09067285060882568,0.04718726873397827
1712257353303374000,3.0323740234375,0.08041667938232422,0.03810608386993408,0.02502918243408203
1712257353313373000,3.042373046875,0.035706520080566406,0.015406608581542969,0.051454246044158936
1712257353323371500,3.05237158203125,-0.04724884033203125,0.0540158748626709,0.10987734794616699
1712257353333370400,3.062370361328125,-0.060606956481933594,0.09423625469207764,0.04009866714477539
1712257353343369200,3.072369140625,0.08652591705322266,0.0960153341293335,-0.06417948007583618
1712257353353368000,3.0823681640625,0.26958179473876953,-0.00006592273712158203,-0.11643561720848083
1712257353363367000,3.092366943359375,0.35430145263671875,-0.07121717929840088,-0.04297357797622681
1712257353373365500,3.102365478515625,0.22330665588378906,-0.08416521549224854,-0.031463682651519775
1712257353383364400,3.1123642578125,0.010552406311035156,-0.05800187587738037,-0.07257077097892761
1712257353393363200,3.12236328125,-0.07315826416015625,0.01216578483581543,-0.053479790687561035
1712257353403361800,3.13236181640625,-0.05863761901855469,0.022647976875305176,-0.10294660925865173
1712257353413360600,3.142360595703125,0.03250408172607422,0.007164359092712402,-0.0885612964630127
1712257353423359200,3.152359130859375,0.05899238586425781,-0.01002359390258789,-0.07791182398796082
1712257353433358000,3.162358154296875,-0.06780815124511719,-0.046297430992126465,-0.12141573429107666
1712257353443356700,3.172356689453125,-0.2307281494140625,-0.06563544273376465,-0.19710522890090942
1712257353453355500,3.18235546875,-0.24306392669677734,-0.08182168006896973,-0.17599087953567505
1712257353463354400,3.192354248046875,-0.1621532440185547,-0.015011429786682129,-0.08872991800308228
1712257353473353000,3.20235302734375,-0.045159339904785156,0.07585513591766357,0.030831754207611084
1712257353483351800,3.212351806640625,-0.05702495574951172,0.11435484886169434,0.012563437223434448
1712257353493350400,3.222350341796875,-0.13309574127197266,0.08435523509979248,-0.043602168560028076
1712257353503349200,3.232349365234375,-0.18750667572021484,-0.004339456558227539,-0.13237440586090088
1712257353513347800,3.242347900390625,-0.14643096923828125,-0.07172226905822754,-0.1893526315689087
1712257353523346700,3.2523466796875,-0.05788707733154297,-0.07344067096710205,-0.09287455677986145
1712257353533345300,3.26234521484375,0.07357978820800781,-0.01811838150024414,0.04056951403617859
1712257353543344000,3.27234423828125,0.04233837127685547,0.0513455867767334,0.13884881138801575
1712257353553642500,3.282642578125,-0.06758785247802734,0.09460389614105225,0.08509108424186707
1712257353563641000,3.29264111328125,-0.196380615234375,0.09021997451782227,0.02838134765625
1712257353573640000,3.302639892578125,-0.2340078353881836,0.02472364902496338,-0.0026182234287261963
1712257353583638500,3.312638427734375,-0.10645294189453125,0.012759685516357422,-0.044988542795181274
1712257353593637400,3.322637451171875,0.011362075805664062,0.009603023529052734,0.017262578010559082
1712257353603636200,3.33263623046875,-0.0002765655517578125,-0.004377603530883789,0.1063491702079773
1712257353613634800,3.342634765625,-0.05278491973876953,0.02567577362060547,0.10798239707946777
1712257353623633700,3.352633544921875,-0.02875995635986328,0.08018732070922852,0.045436978340148926
1712257353633632500,3.362632568359375,0.03367805480957031,0.06458115577697754,0.02793937921524048
1712257353643631000,3.372631103515625,0.0963296890258789,0.009483695030212402,-0.0772378146648407
1712257353653629700,3.382629638671875,0.09202861785888672,-0.04157817363739014,-0.07930964231491089
1712257353663628500,3.392628662109375,0.0614166259765625,-0.06414520740509033,-0.045357584953308105
1712257353673627100,3.402627197265625,-0.014800071716308594,-0.052849531173706055,-0.007408499717712402
1712257353683626000,3.4126259765625,-0.06490135192871094,-0.00681149959564209,0.041590601205825806
1712257353693624600,3.42262451171875,-0.08403301239013672,0.0476071834564209,0.07638800144195557
1712257353703623400,3.43262353515625,-0.06008148193359375,0.09527170658111572,0.06242141127586365
1712257353713622300,3.442622314453125,-0.021646499633789062,0.05848109722137451,0.028541624546051025
1712257353723620900,3.452620849609375,-0.00466156005859375,0.059233665466308594,0.025705784559249878
1712257353733619700,3.46261962890625,-0.028131484985351562,0.0460125207901001,0.05887109041213989
1712257353743618600,3.47261865234375,-0.0753011703491211,0.07906055450439453,0.06491285562515259
1712257353753617400,3.482617431640625,-0.12703323364257812,0.0890345573425293,0.031961917877197266
1712257353763616000,3.492615966796875,-0.12361717224121094,0.10330736637115479,0.025094449520111084
1712257353773614800,3.50261474609375,-0.09621810913085938,0.10095500946044922,0.005139857530593872
1712257353783613400,3.512613525390625,-0.01861286163330078,0.07753336429595947,-0.023986101150512695
1712257353793612300,3.5226123046875,0.018146514892578125,0.004706978797912598,-0.0763031542301178
1712257353803611100,3.532611083984375,0.042670249938964844,-0.026056289672851562,-0.09318840503692627
1712257353813610000,3.54260986328125,0.04775810241699219,-0.1032336950302124,-0.12970364093780518
1712257353823608800,3.55260888671875,-0.005031585693359375,-0.10142862796783447,-0.1184089183807373
1712257353833608000,3.56260791015625,-0.0125732421875,-0.07657134532928467,-0.05099397897720337
1712257353843606800,3.572606689453125,0.0013866424560546875,-0.043906211853027344,-0.03694957494735718
1712257353853605600,3.582605712890625,-0.0038080215454101562,-0.042212843894958496,-0.04245331883430481
1712257353863604500,3.5926044921875,-0.008973121643066406,-0.055019497871398926,0.014083147048950195
1712257353873603300,3.602603271484375,-0.026096343994140625,-0.026867985725402832,0.04089915752410889
1712257353883602200,3.612602294921875,-0.0623779296875,0.003908872604370117,-0.019079118967056274
1712257353893601000,3.62260107421875,-0.05315876007080078,-0.030044078826904297,-0.031071066856384277
1712257353903599900,3.632599853515625,-0.055909156799316406,-0.025634169578552246,-0.038465678691864014
1712257353913598700,3.6425986328125,-0.03460693359375,0.006843209266662598,0.023018211126327515
1712257353923597600,3.65259765625,-0.0034799575805664062,0.023601055145263672,0.0565110445022583
1712257353933596400,3.662596435546875,-0.03200054168701172,0.05112767219543457,0.05046698451042175
1712257353943595300,3.67259521484375,-0.05552864074707031,0.026929259300231934,-0.01821589469909668
1712257353953594000,3.682593994140625,-0.047858238220214844,-0.03149998188018799,-0.06491601467132568
1712257353963593000,3.692593017578125,-0.08817672729492188,-0.07028675079345703,-0.06514811515808105
1712257353973591800,3.702591796875,-0.10718631744384766,-0.016681194305419922,-0.04257863759994507
1712257353983590700,3.712590576171875,-0.1121225357055664,0.0028269290924072266,-0.04741892218589783
1712257353993589800,3.72258984375,-0.09325695037841797,0.013543009757995605,-0.022686690092086792
1712257354003588600,3.732588623046875,-0.04558849334716797,0.01921379566192627,0.02278745174407959
1712257354013587200,3.742587158203125,0.0022954940795898438,0.03110504150390625,0.05660080909729004
1712257354023586000,3.7525859375,-0.05249309539794922,0.04125785827636719,0.04361078143119812
1712257354033585200,3.762585205078125,-0.054327964782714844,0.06628775596618652,0.06577107310295105
1712257354043583700,3.772583740234375,-0.008131980895996094,0.06657004356384277,0.060724884271621704
1712257354053582600,3.78258251953125,-0.03856945037841797,0.0909874439239502,0.0842718780040741
1712257354063581700,3.792581787109375,-0.033127784729003906,0.10356032848358154,0.1274586021900177
1712257354073580500,3.80258056640625,-0.03487396240234375,0.09727096557617188,0.045436471700668335
1712257354083579400,3.812579345703125,0.07113361358642578,0.10069417953491211,0.017882615327835083
1712257354093578000,3.822577880859375,0.1078195571899414,0.06284213066101074,0.035081565380096436
1712257354103576800,3.832576904296875,0.05840110778808594,0.029056906700134277,0.0453551709651947
1712257354113575700,3.84257568359375,-0.017362594604492188,0.018903136253356934,0.03763049840927124
1712257354123574300,3.85257421875,-0.08843803405761719,0.021159052848815918,0.038083434104919434
1712257354133573000,3.862572998046875,-0.07586956024169922,0.00032770633697509766,-0.02758738398551941
1712257354143571700,3.87257177734375,-0.008531570434570312,-0.025815248489379883,-0.0707123875617981
1712257354153570300,3.8825703125,0.03939247131347656,-0.035845041275024414,-0.01035192608833313
1712257354163569200,3.892569091796875,0.0729379653930664,-0.0360034704208374,-0.008058607578277588
1712257354173567700,3.902567626953125,0.09698009490966797,-0.05563485622406006,-0.08063831925392151
1712257354183566600,3.912566650390625,0.09950447082519531,-0.08540463447570801,-0.13308268785476685
1712257354193565200,3.922565185546875,0.08042049407958984,-0.12010324001312256,-0.17424985766410828
1712257354203564000,3.93256396484375,0.013223648071289062,-0.12514090538024902,-0.13418927788734436
1712257354213563000,3.94256298828125,0.0009555816650390625,-0.07675790786743164,-0.06454089283943176
1712257354223561500,3.9525615234375,0.0077114105224609375,-0.020511507987976074,-0.07535415887832642
1712257354233560300,3.962560302734375,-0.10531139373779297,-0.00007998943328857422,-0.05860444903373718
1712257354243559200,3.97255908203125,-0.21348953247070312,-0.001699686050415039,-0.005510568618774414
1712257354253557800,3.982557861328125,-0.18262481689453125,-0.013657808303833008,0.04121124744415283
1712257354263556600,3.992556640625,-0.11814594268798828,0.02737104892730713,0.06805917620658875
1712257354273555200,4.00255517578125,-0.1253223419189453,0.04879105091094971,0.10182806849479675
1712257354283554000,4.012553955078125,-0.0964803695678711,0.057834625244140625,0.09611251950263977
1712257354293553000,4.022552978515625,-0.06271553039550781,0.05904340744018555,0.05344691872596741
1712257354303551500,4.032551513671875,-0.021703720092773438,0.045420050621032715,0.015533685684204102
1712257354313550300,4.04255029296875,-0.028473854064941406,0.052727341651916504,0.029838114976882935
1712257354323549200,4.052549072265625,0.07508373260498047,0.061251044273376465,0.05306783318519592
1712257354333547800,4.0625478515625,0.08788490295410156,0.07568395137786865,0.09669992327690125
1712257354343546600,4.072546630859375,-0.0021076202392578125,0.07702219486236572,0.08762133121490479
1712257354353545500,4.08254541015625,-0.008296966552734375,0.05632305145263672,0.02503010630607605
1712257354363544000,4.0925439453125,0.01645183563232422,0.06773698329925537,-0.029142379760742188
1712257354373543000,4.10254296875,0.07218551635742188,0.022556304931640625,-0.018138736486434937
1712257354383541800,4.112541748046875,0.0655069351196289,-0.004694223403930664,-0.009537696838378906
1712257354393540400,4.122540283203125,0.05637073516845703,0.01141810417175293,-0.007530570030212402
1712257354403539200,4.132539306640625,0.0017719268798828125,0.003182530403137207,-0.00005409121513366699
1712257354413537800,4.142537841796875,-0.06238269805908203,0.018627047538757324,0.014967560768127441
1712257354423536600,4.15253662109375,-0.03542137145996094,0.03806591033935547,0.02237999439239502
1712257354433535500,4.162535400390625,-0.03707695007324219,0.00912320613861084,-0.0046942830085754395
1712257354443534000,4.1725341796875,-0.06507110595703125,-0.0006494522094726562,-0.0029623806476593018
1712257354453533000,4.182532958984375,-0.11465930938720703,-0.034276485443115234,0.011496633291244507
1712257354463531800,4.19253173828125,-0.1573495864868164,-0.011275887489318848,0.03218984603881836
1712257354473530400,4.2025302734375,-0.14759159088134766,0.025366783142089844,0.04306301474571228
1712257354483529200,4.212529296875,-0.1116018295288086,0.05343806743621826,0.06980189681053162
1712257354493528000,4.222528076171875,-0.08033180236816406,0.05269360542297363,-0.048368752002716064
1712257354503526700,4.232526611328125,0.022821426391601562,-0.001313924789428711,-0.12275350093841553
1712257354513525500,4.242525390625,0.07096385955810547,-0.07506239414215088,-0.0696859061717987
1712257354523524000,4.252524169921875,0.08802604675292969,-0.07715582847595215,-0.02900555729866028
1712257354533523000,4.26252294921875,0.01884937286376953,-0.023963451385498047,-0.004783928394317627
1712257354543521500,4.272521484375,-0.026399612426757812,0.0026677846908569336,-0.013011842966079712
1712257354553520000,4.28252001953125,-0.059813499450683594,0.010604500770568848,-0.03639328479766846
1712257354563519000,4.29251904296875,-0.15335750579833984,-0.006476640701293945,-0.07705387473106384
1712257354573517800,4.302517822265625,-0.16569042205810547,-0.03432142734527588,-0.1147814393043518
1712257354583516400,4.312516357421875,-0.09432506561279297,-0.039852261543273926,-0.14784055948257446
1712257354593515300,4.322515380859375,0.056145668029785156,-0.05042850971221924,-0.08883315324783325
1712257354603513900,4.332513916015625,0.13260555267333984,-0.04752767086029053,-0.029349207878112793
1712257354613512700,4.3425126953125,0.07518386840820312,-0.012303829193115234,0.03906884789466858
1712257354623511300,4.35251123046875,-0.08260059356689453,-0.004775643348693848,0.042851150035858154
1712257354633510100,4.36251025390625,-0.18293380737304688,0.04088032245635986,0.03554660081863403
1712257354643509000,4.372509033203125,-0.14922142028808594,0.07248759269714355,0.01840880513191223
1712257354653507600,4.382507568359375,-0.07021808624267578,0.07684588432312012,-0.006213158369064331
1712257354663506400,4.39250634765625,0.039931297302246094,0.07164013385772705,-0.0242193341255188
1712257354673505000,4.402505126953125,0.04963111877441406,0.0227586030960083,-0.014099985361099243
1712257354683503900,4.41250390625,-0.03622722625732422,0.022832393646240234,0.02183830738067627
1712257354693502500,4.42250244140625,-0.1193857192993164,0.075935959815979,0.04796767234802246
1712257354703501300,4.432501220703125,-0.14957714080810547,0.06012368202209473,0.016239792108535767
1712257354713500200,4.442500244140625,-0.12488079071044922,0.05994093418121338,-0.010712027549743652
1712257354723498800,4.452498779296875,-0.057315826416015625,0.030149102210998535,-0.013557463884353638
1712257354733497600,4.46249755859375,0.06028556823730469,-0.02653682231903076,-0.00984865427017212
1712257354743496400,4.472496337890625,0.11066913604736328,-0.04852557182312012,-0.037108659744262695
1712257354753495000,4.4824951171875,0.0986642837524414,-0.079581618309021,-0.046117931604385376
1712257354763494000,4.492493896484375,-0.0020818710327148438,-0.07646465301513672,-0.053768932819366455
1712257354773492500,4.502492431640625,-0.055080413818359375,-0.06561076641082764,-0.06240040063858032
1712257354783491300,4.5124912109375,-0.09140491485595703,-0.03263986110687256,-0.05895999073982239
1712257354793490200,4.522490234375,-0.10857772827148438,-0.01160120964050293,-0.036406248807907104
1712257354803488800,4.53248876953125,-0.07778739929199219,-0.0077141523361206055,0.04548916220664978
1712257354813487600,4.542487548828125,-0.032517433166503906,0.01747596263885498,0.12789210677146912
1712257354823486500,4.552486572265625,-0.018204689025878906,0.020649433135986328,0.08804965019226074
1712257354833485000,4.562485107421875,-0.05880546569824219,-0.0033620595932006836,-0.005226790904998779
1712257354843484200,4.572484130859375,-0.08262062072753906,-0.027895092964172363,-0.020636826753616333
1712257354853483000,4.58248291015625,-0.049019813537597656,-0.04503965377807617,0.0027092397212982178
1712257354863481900,4.59248193359375,-0.010743141174316406,-0.003827691078186035,0.0830262303352356
1712257354873481000,4.60248095703125,-0.025167465209960938,0.06426405906677246,0.09743031859397888
1712257354883479800,4.612479736328125,-0.0300140380859375,0.09852862358093262,0.03155609965324402
1712257354893479000,4.62247900390625,-0.037258148193359375,0.07013177871704102,0.022273093461990356
1712257354903478000,4.63247802734375,-0.05642127990722656,0.010014057159423828,-0.03163668513298035
1712257354913476900,4.642476806640625,-0.0061817169189453125,-0.030846476554870605,-0.08272260427474976
1712257354923476000,4.65247607421875,0.036884307861328125,-0.045401573181152344,-0.08846503496170044
1712257354933475000,4.66247509765625,0.008158683776855469,-0.06977665424346924,-0.09181913733482361
1712257354943474200,4.67247412109375,0.008090972900390625,-0.04127025604248047,-0.017487525939941406
1712257354953473300,4.682473388671875,0.019921302795410156,0.004686474800109863,-0.0012804269790649414
1712257354963472400,4.692472412109375,0.05328559875488281,0.03175616264343262,0.014315187931060791
1712257354973471500,4.702471435546875,0.03408622741699219,0.04861772060394287,-0.00409245491027832
1712257354983470600,4.712470703125,0.02943897247314453,0.06402909755706787,-0.0026658177375793457
1712257354993469700,4.7224697265625,-0.01806163787841797,0.03461885452270508,0.018165409564971924
1712257355003468800,4.73246875,-0.11101436614990234,0.000041604042053222656,-0.013254910707473755
1712257355013468000,4.742468017578125,-0.11312198638916016,-0.02400374412536621,-0.08060222864151001
1712257355023467000,4.752467041015625,-0.08432769775390625,-0.022571682929992676,-0.052236407995224
1712257355033466000,4.762466064453125,-0.050830841064453125,0.0059195756912231445,0.018731355667114258
1712257355043465000,4.77246484375,-0.0028476715087890625,0.050866127014160156,0.08050203323364258
1712257355053464000,4.782464111328125,-0.007271766662597656,0.09688520431518555,0.11172285676002502
1712257355063463200,4.792463134765625,-0.0042819976806640625,0.0768669843673706,0.06329426169395447
1712257355073462300,4.802462158203125,-0.07068538665771484,0.03958463668823242,0.027740687131881714
1712257355083461400,4.81246142578125,-0.10133838653564453,-0.025763750076293945,-0.046798259019851685
1712257355093460500,4.82246044921875,-0.07959175109863281,-0.09679019451141357,-0.1511562019586563
1712257355103459600,4.83245947265625,-0.07254791259765625,-0.1228255033493042,-0.10084852576255798
1712257355113458700,4.842458740234375,-0.053714752197265625,-0.07094681262969971,0.00423702597618103
1712257355123457800,4.852457763671875,-0.022792816162109375,0.01657271385192871,0.061877936124801636
1712257355133457000,4.862456787109375,-0.05622291564941406,0.03070521354675293,0.060456156730651855
1712257355143455700,4.872455810546875,-0.10390567779541016,-0.006394743919372559,0.014275163412094116
1712257355153454600,4.88245458984375,-0.07276248931884766,-0.06639456748962402,-0.05505302548408508
1712257355163453700,4.89245361328125,0.0011806488037109375,-0.08863651752471924,-0.07351639866828918
1712257355173452500,4.90245263671875,0.04855632781982422,-0.10688841342926025,-0.03708171844482422
1712257355183451100,4.912451171875,0.04556083679199219,-0.04778003692626953,-0.013023942708969116
1712257355193450000,4.922449951171875,0.0043430328369140625,-0.0013539791107177734,0.0019525885581970215
1712257355203448800,4.93244873046875,-0.039122581481933594,0.03434300422668457,0.012788146734237671
1712257355213447700,4.94244775390625,-0.0633554458618164,0.03118109703063965,-0.036155134439468384
1712257355223446500,4.952446533203125,-0.07077503204345703,0.0012428760528564453,-0.06326419115066528
1712257355233445000,4.962445068359375,-0.07340049743652344,-0.0432581901550293,-0.10649916529655457
1712257355243444000,4.97244384765625,-0.04013252258300781,-0.06870150566101074,-0.053010910749435425
1712257355253442600,4.982442626953125,0.012334823608398438,-0.019858121871948242,0.06608426570892334
1712257355263441400,4.99244140625,0.014726638793945312,0.06175589561462402,0.1467261016368866
1712257355273440000,5.00243994140625,-0.006519317626953125,0.11780571937561035,0.15856537222862244
1712257355283438800,5.01243896484375,-0.020359039306640625,0.11752653121948242,0.09039059281349182
1712257355293437400,5.0224375,-0.03657054901123047,0.0619426965713501,-0.04204407334327698
1712257355303436300,5.032436279296875,0.004528999328613281,-0.03380084037780762,-0.09837588667869568
1712257355313435100,5.04243505859375,0.08132171630859375,-0.08291280269622803,-0.08390137553215027
1712257355323433700,5.052433837890625,0.1268463134765625,-0.06404197216033936,-0.05015215277671814
1712257355333432600,5.0624326171875,0.08615875244140625,-0.035677313804626465,0.01313057541847229
1712257355343431400,5.072431396484375,0.011981010437011719,0.011474847793579102,0.04113975167274475
1712257355353430300,5.08243017578125,-0.033354759216308594,0.04829561710357666,0.03803050518035889
1712257355363428900,5.092428955078125,-0.016323089599609375,0.05102086067199707,0.07244554162025452
1712257355373427700,5.102427734375,0.04870033264160156,0.05096149444580078,0.03850299119949341
1712257355383426300,5.11242626953125,0.10420703887939453,0.017145872116088867,-0.007955402135848999
1712257355393425200,5.122425048828125,0.06877517700195312,-0.03613162040710449,0.0054520368576049805
1712257355403423700,5.132423828125,-0.06962203979492188,-0.04170811176300049,0.09174606204032898
1712257355413422600,5.142422607421875,-0.1051034927368164,0.013020634651184082,0.02168908715248108
1712257355423421400,5.15242138671875,-0.0999441146850586,0.04416024684906006,-0.03377789258956909
1712257355433420000,5.162419921875,-0.06853771209716797,0.05421626567840576,-0.004898011684417725
1712257355443419000,5.1724189453125,-0.02263164520263672,0.034943580627441406,0.0994759202003479
1712257355453417700,5.182417724609375,-0.057854652404785156,0.014302849769592285,0.03208842873573303
1712257355463416300,5.192416259765625,-0.12648963928222656,0.007136106491088867,-0.0633210837841034
1712257355473415200,5.202415283203125,-0.16166114807128906,-0.033609986305236816,-0.06840583682060242
1712257355483414000,5.2124140625,-0.13714599609375,-0.018349528312683105,-0.053522318601608276
1712257355493412600,5.22241259765625,-0.11055564880371094,-0.025120258331298828,-0.0594487190246582
1712257355503411500,5.232411376953125,-0.06510543823242188,0.010604023933410645,0.009387731552124023
1712257355513410000,5.24241015625,-0.0699930191040039,0.025303959846496582,0.060920655727386475
1712257355523409000,5.252408935546875,-0.06287384033203125,0.05179440975189209,0.04520300030708313
1712257355533407700,5.26240771484375,-0.02450275421142578,0.0392071008682251,0.002932518720626831
1712257355543406300,5.27240625,0.009081840515136719,0.00014090538024902344,-0.036442458629608154
1712257355553405200,5.2824052734375,0.03529930114746094,-0.07156968116760254,-0.10321146249771118
1712257355563403800,5.29240380859375,0.0012664794921875,-0.09579956531524658,-0.11964385211467743
1712257355573402600,5.302402587890625,0.03881263732910156,-0.09475588798522949,-0.12275592982769012
1712257355583401200,5.312401123046875,0.09543609619140625,-0.016472578048706055,-0.08785814046859741
1712257355593400000,5.322400146484375,0.06366539001464844,0.022357463836669922,-0.06298935413360596
1712257355603399000,5.33239892578125,-0.013369560241699219,0.035610198974609375,0.020016402006149292
1712257355613397500,5.3423974609375,-0.08301925659179688,0.08843016624450684,0.06874239444732666
1712257355623396000,5.35239599609375,-0.06619071960449219,0.0967797040939331,0.05542677640914917
1712257355633395000,5.36239501953125,-0.00843048095703125,0.09211313724517822,0.06397506594657898
1712257355643393800,5.372393798828125,0.016078948974609375,0.05505824089050293,0.005601346492767334
1712257355653392400,5.382392333984375,0.000049591064453125,0.012072563171386719,0.03373625874519348
1712257355663391000,5.392390869140625,-0.06154441833496094,-0.020991921424865723,-0.03321978449821472
1712257355673389800,5.402389892578125,-0.06109046936035156,-0.036179542541503906,-0.08474616706371307
1712257355683388400,5.412388427734375,-0.060909271240234375,-0.0259474515914917,-0.07503029704093933
1712257355693387300,5.42238720703125,-0.06093883514404297,-0.03352832794189453,-0.04837954044342041
1712257355703386000,5.43238623046875,-0.025110244750976562,-0.0406566858291626,-0.05085676908493042
1712257355713385000,5.442385009765625,0.027391433715820312,-0.04716360569000244,-0.012849807739257812
1712257355723383600,5.452383544921875,0.060700416564941406,-0.02214193344116211,0.048417091369628906
1712257355733382400,5.46238232421875,0.029470443725585938,-0.00949239730834961,0.09391802549362183
1712257355743381200,5.47238134765625,-0.03753852844238281,-0.02872490882873535,0.002336740493774414
1712257355753379800,5.4823798828125,-0.030350685119628906,-0.04793381690979004,-0.06695595383644104
1712257355763378700,5.492378662109375,0.007840156555175781,-0.07850325107574463,-0.07555043697357178
1712257355773377300,5.502377197265625,-0.04505634307861328,-0.06771278381347656,-0.02411884069442749
1712257355783376100,5.512376220703125,-0.057160377502441406,0.00004172325134277344,0.06519502401351929
1712257355793375000,5.522375,-0.0833883285522461,0.0665045976638794,0.04776567220687866
1712257355803373600,5.53237353515625,-0.13093090057373047,0.08599388599395752,0.0038231611251831055
1712257355813372400,5.542372314453125,-0.13769149780273438,0.035419344902038574,-0.0204351544380188
1712257355823371300,5.552371337890625,-0.0943145751953125,-0.009644508361816406,-0.0006520450115203857
1712257355833369900,5.562369873046875,0.01595592498779297,-0.017662763595581055,-0.007976830005645752
1712257355843368700,5.57236865234375,0.046988487243652344,0.006994485855102539,-0.015659451484680176
1712257355853367600,5.582367431640625,0.020606040954589844,0.038428544998168945,0.06326892971992493
1712257355863366100,5.5923662109375,-0.03424644470214844,0.04668986797332764,0.03891277313232422
1712257355873365000,5.602364990234375,-0.09122943878173828,0.03654611110687256,-0.0025531351566314697
1712257355883363600,5.612363525390625,-0.1217336654663086,0.06619954109191895,0.030216902494430542
1712257355893362400,5.622362548828125,-0.11855316162109375,0.06621837615966797,0.026308000087738037
1712257355903361300,5.632361328125,-0.12009716033935547,0.05396735668182373,-0.023524731397628784
1712257355913360000,5.64235986328125,-0.09067726135253906,0.008996248245239258,-0.11286437511444092
1712257355923358700,5.652358642578125,-0.030533790588378906,-0.038657426834106445,-0.09934797883033752
1712257355933357600,5.662357666015625,0.07714271545410156,-0.07921409606933594,-0.0740833580493927
1712257355943356400,5.6723564453125,0.13435649871826172,-0.030036211013793945,-0.053498923778533936
1712257355953355500,5.68235546875,0.1821269989013672,-0.04878079891204834,-0.016020148992538452
1712257355963354400,5.692354248046875,0.14864063262939453,-0.003753662109375,0.02588123083114624
1712257355973353500,5.702353515625,0.029119491577148438,0.030656814575195312,0.029541492462158203
1712257355983352300,5.712352294921875,-0.10945415496826172,0.04030156135559082,0.02214685082435608
1712257355993351400,5.722351318359375,-0.1451263427734375,0.05264163017272949,0.002929002046585083
1712257356003350500,5.7323505859375,-0.10186290740966797,0.022601962089538574,-0.007819592952728271
1712257356013349400,5.742349365234375,-0.02513408660888672,0.029136180877685547,0.008575081825256348
1712257356023348500,5.752348388671875,0.039740562438964844,0.027951717376708984,0.05512875318527222
1712257356033347600,5.76234765625,-0.0029048919677734375,0.013467669486999512,0.08205819129943848
1712257356043346400,5.772346435546875,-0.04777336120605469,0.04109656810760498,0.0582578182220459
1712257356053345500,5.782345458984375,-0.12365913391113281,0.020200133323669434,-0.008821099996566772
1712257356063344600,5.7923447265625,-0.16136455535888672,-0.012112140655517578,-0.03866124153137207
1712257356073343700,5.80234375,-0.1322488784790039,-0.08397769927978516,-0.1152588278055191
1712257356083342800,5.8123427734375,-0.07486915588378906,-0.13402807712554932,-0.14258843660354614
1712257356093342000,5.822342041015625,-0.025114059448242188,-0.16714680194854736,-0.13046152889728546
1712257356103340800,5.8323408203125,0.029082298278808594,-0.147985577583313,-0.040698081254959106
1712257356113340000,5.84233984375,0.011328697204589844,-0.06806707382202148,0.03418239951133728
1712257356123339000,5.852339111328125,-0.018270492553710938,0.02080821990966797,0.04125818610191345
1712257356133338000,5.862338134765625,-0.04277324676513672,0.09106528759002686,0.02869400382041931
1712257356143337200,5.872337158203125,-0.04052257537841797,0.06550133228302002,0.012679725885391235
1712257356153336000,5.882336181640625,-0.035599708557128906,0.03594160079956055,-0.013811886310577393
1712257356163335200,5.892335205078125,-0.006611824035644531,-0.011109471321105957,-0.023809731006622314
1712257356173334300,5.902334228515625,-0.0015125274658203125,-0.024871468544006348,0.003953278064727783
1712257356183333400,5.91233349609375,-0.022789955139160156,-0.021625876426696777,0.031739264726638794
1712257356193332200,5.922332275390625,-0.02255535125732422,0.04181993007659912,0.09492209553718567
1712257356203331300,5.932331298828125,-0.012666702270507812,0.08822965621948242,0.10196793079376221
1712257356213330400,5.942330322265625,-0.048148155212402344,0.09082543849945068,0.07522338628768921
1712257356223329500,5.95232958984375,-0.07640361785888672,0.059561848640441895,-0.013373494148254395
1712257356233328400,5.962328369140625,-0.06640434265136719,0.035581231117248535,-0.031293630599975586
1712257356243327200,5.9723271484375,-0.0396575927734375,-0.0075157880783081055,-0.010716855525970459
1712257356253326300,5.982326416015625,0.013336181640625,-0.01637089252471924,0.004346132278442383
1712257356263325000,5.992324951171875,0.011200904846191406,0.02075827121734619,0.04523247480392456
1712257356273323800,6.00232373046875,0.013965606689453125,0.07633781433105469,0.11489352583885193
1712257356283322600,6.012322509765625,0.028911590576171875,0.06140279769897461,0.10201096534729004
1712257356293321500,6.022321533203125,0.015203475952148438,0.029327392578125,0.028847843408584595
1712257356303320000,6.032320068359375,-0.0033636093139648438,-0.040825486183166504,-0.03846311569213867
1712257356313319000,6.04231884765625,-0.010202407836914062,-0.08338570594787598,-0.051851481199264526
1712257356323317500,6.0523173828125,0.011460304260253906,-0.0983119010925293,-0.08129295706748962
1712257356333316400,6.06231640625,-0.005417823791503906,-0.06659984588623047,-0.05902618169784546
1712257356343315000,6.07231494140625,-0.048743247985839844,-0.012841582298278809,0.01201784610748291
1712257356353313800,6.082313720703125,-0.08958816528320312,0.057276248931884766,0.06329357624053955
1712257356363312400,6.0923125,-0.12062358856201172,0.07103288173675537,0.06587588787078857
1712257356373311200,6.102311279296875,-0.09881973266601562,0.05041038990020752,0.005419284105300903
1712257356383309800,6.112309814453125,-0.07459068298339844,-0.003917098045349121,-0.028732597827911377
1712257356393308700,6.12230859375,-0.031350135803222656,-0.05738842487335205,-0.04117259383201599
1712257356403307300,6.132307373046875,-0.03139209747314453,-0.05701029300689697,-0.04172024130821228
1712257356413306000,6.14230615234375,0.021146774291992188,-0.056142330169677734,-0.0059185028076171875
1712257356423305000,6.152304931640625,0.02100086212158203,-0.02642214298248291,0.0009136497974395752
1712257356433303600,6.162303466796875,0.004161834716796875,0.005261540412902832,-0.013753056526184082
1712257356443302400,6.172302490234375,-0.053246498107910156,0.028874754905700684,-0.001817256212234497
1712257356453301200,6.18230126953125,-0.08184623718261719,0.015909910202026367,-0.0058495402336120605
1712257356463299800,6.1922998046875,-0.055314064025878906,0.03376662731170654,-0.005462437868118286
1712257356473298700,6.202298583984375,0.004681587219238281,0.028104305267333984,-0.0006342530250549316
1712257356483297500,6.212297607421875,0.05275154113769531,0.007956147193908691,0.027352362871170044
1712257356493296000,6.222296142578125,0.03136253356933594,0.009594440460205078,0.028622955083847046
1712257356503295000,6.232294921875,0.005337715148925781,0.0317533016204834,0.032658159732818604
1712257356513293600,6.24229345703125,-0.06371593475341797,0.04141843318939209,0.00843513011932373
1712257356523292400,6.25229248046875,-0.07051563262939453,0.041396141052246094,0.02537176012992859
1712257356533291300,6.262291259765625,-0.041385650634765625,0.08211266994476318,0.07281705737113953
1712257356543289900,6.272289794921875,-0.031302452087402344,0.05777561664581299,0.02093338966369629
1712257356553288700,6.282288818359375,-0.011654853820800781,0.019069790840148926,-0.02342095971107483
1712257356563287600,6.29228759765625,0.017534255981445312,-0.033919572830200195,-0.040700167417526245
1712257356573286100,6.3022861328125,0.008278846740722656,-0.045433878898620605,0.006977975368499756
1712257356583285000,6.312284912109375,-0.010660171508789062,-0.00363922119140625,-0.000302046537399292
1712257356593283800,6.322283935546875,-0.024755477905273438,0.030603885650634766,-0.014637589454650879
1712257356603282400,6.332282470703125,-0.0029449462890625,0.00743710994720459,-0.04810929298400879
1712257356613281300,6.34228125,-0.031416893005371094,-0.034989118576049805,-0.042716145515441895
1712257356623279900,6.35227978515625,-0.05527496337890625,-0.09572601318359375,-0.09369437396526337
1712257356633278700,6.36227880859375,-0.038743019104003906,-0.13091731071472168,-0.12404248118400574
1712257356643277600,6.372277587890625,-0.036876678466796875,-0.14046692848205566,-0.12731631100177765
1712257356653276200,6.382276123046875,-0.06636905670166016,-0.10563409328460693,-0.026824504137039185
1712257356663275000,6.39227490234375,-0.06957054138183594,-0.05360996723175049,-0.010766863822937012
1712257356673273600,6.402273681640625,-0.08945465087890625,0.002953767776489258,0.0019130110740661621
1712257356683272400,6.4122724609375,-0.05887126922607422,0.0009987354278564453,-0.024252980947494507
1712257356693271000,6.42227099609375,-0.030498504638671875,-0.04503214359283447,-0.03438454866409302
1712257356703270000,6.432269775390625,-0.052422523498535156,-0.047895193099975586,-0.020365476608276367
1712257356713268700,6.442268798828125,-0.05283927917480469,0.004500746726989746,-0.008358895778656006
1712257356723267300,6.452267333984375,-0.06749629974365234,0.027540206909179688,0.02917763590812683
1712257356733266200,6.46226611328125,-0.0077362060546875,0.056865811347961426,0.04118797183036804
1712257356743264800,6.4722646484375,0.018743515014648438,0.05868351459503174,0.09225583076477051
1712257356753263600,6.482263671875,-0.007147789001464844,0.08038139343261719,0.14947697520256042
1712257356763262200,6.49226220703125,-0.061606407165527344,0.10361313819885254,0.1700042486190796
1712257356773261000,6.502260986328125,-0.13031291961669922,0.13100898265838623,0.09189960360527039
1712257356783259600,6.512259765625,-0.10787677764892578,0.08077788352966309,-0.0003800392150878906
1712257356793258500,6.522258544921875,-0.06154918670654297,0.05959880352020264,-0.006362199783325195
1712257356803257000,6.532257080078125,-0.0103759765625,0.026224374771118164,0.039844125509262085
1712257356813256000,6.542255859375,0.00969696044921875,0.052744269371032715,0.08523863554000854
1712257356823254800,6.5522548828125,0.008265495300292969,0.06943655014038086,0.04684975743293762
1712257356833253400,6.56225341796875,0.013987541198730469,0.01910257339477539,-0.038487792015075684
1712257356843252200,6.572252197265625,0.02177906036376953,-0.044115304946899414,-0.09510385990142822
1712257356853251000,6.5822509765625,0.03151130676269531,-0.09796583652496338,-0.09162059426307678
1712257356863249700,6.592249755859375,0.07912921905517578,-0.06564223766326904,-0.07050159573554993
1712257356873248500,6.60224853515625,0.07390117645263672,-0.03954052925109863,-0.04174521565437317
1712257356883247000,6.6122470703125,0.059182167053222656,0.017217636108398438,0.022633224725723267
1712257356893246000,6.622245849609375,-0.0007410049438476562,0.0700843334197998,0.028448551893234253
1712257356903244800,6.632244873046875,-0.05546855926513672,0.06073939800262451,0.00015780329704284668
1712257356913243400,6.642243408203125,-0.09795475006103516,0.03767848014831543,-0.027653872966766357
1712257356923242200,6.6522421875,-0.12848949432373047,-0.040439605712890625,-0.04048106074333191
1712257356933241000,6.662240966796875,-0.1090078353881836,-0.05966508388519287,-0.07645151019096375
1712257356943239700,6.67223974609375,-0.12582874298095703,-0.07453465461730957,-0.038682252168655396
1712257356953238500,6.682238525390625,-0.044775962829589844,-0.07567107677459717,0.06383082270622253
1712257356963237400,6.6922373046875,-0.08101558685302734,-0.00457918643951416,-0.05198931694030762
1712257356973236000,6.702236083984375,-0.05254936218261719,-0.02772367000579834,-0.03596934676170349
1712257356983234800,6.71223486328125,0.1581106185913086,-0.04449331760406494,0.05380970239639282
1712257356993233700,6.722233642578125,0.26377201080322266,-0.01701188087463379,0.02661377191543579
1712257357003232300,6.732232177734375,0.09928417205810547,-0.01826190948486328,-0.11569865047931671
1712257357013231000,6.742231201171875,-0.12490272521972656,-0.05743277072906494,-0.17365597188472748
1712257357023230000,6.75222998046875,-0.22635269165039062,-0.07618427276611328,-0.146498441696167
1712257357033228800,6.762228759765625,-0.17512798309326172,-0.05066537857055664,-0.08195324242115021
1712257357043227600,6.7722275390625,-0.10067939758300781,0.003215789794921875,-0.006146073341369629
1712257357053226500,6.7822265625,-0.08182716369628906,0.06737792491912842,0.06746670603752136
1712257357063225300,6.792225341796875,-0.04408073425292969,0.0874563455581665,0.17057576775550842
1712257357073224200,6.80222412109375,-0.0901041030883789,0.10733294486999512,0.19242402911186218
1712257357083223000,6.81222314453125,-0.09524822235107422,0.12368583679199219,0.15007227659225464
1712257357093222000,6.822221923828125,-0.05236625671386719,0.10328328609466553,0.1005251407623291
1712257357103221000,6.832220947265625,-0.0021581649780273438,0.05828452110290527,0.0858331024646759
1712257357113219800,6.8422197265625,-0.016542434692382812,0.010642290115356445,0.03007960319519043
1712257357123218400,6.852218505859375,-0.0021924972534179688,-0.008282184600830078,0.017453551292419434
1712257357133217300,6.86221728515625,0.004881858825683594,0.0019021034240722656,0.024845242500305176
1712257357143216400,6.87221630859375,0.0046367645263671875,0.0032235383987426758,0.025616228580474854
1712257357153215000,6.882215087890625,0.020995140075683594,0.08920633792877197,0.05310031771659851
1712257357163213800,6.8922138671875,-0.0010175704956054688,0.086944580078125,0.08077472448348999
1712257357173213000,6.902212890625,-0.03726959228515625,0.04325389862060547,0.01013597846031189
1712257357183211800,6.912211669921875,-0.03738689422607422,0.0030275583267211914,-0.00064888596534729
1712257357193210600,6.922210693359375,0.01786041259765625,-0.03873276710510254,-0.027112305164337158
1712257357203209500,6.93220947265625,0.06615161895751953,-0.06005418300628662,-0.014129638671875
1712257357213208300,6.942208251953125,0.08130645751953125,-0.047286152839660645,0.020358532667160034
1712257357223207200,6.952207275390625,-0.004383087158203125,-0.025912761688232422,0.01088482141494751
1712257357233206000,6.9622060546875,-0.08794498443603516,-0.02967393398284912,-0.02050173282623291
1712257357243204900,6.972204833984375,-0.1526927947998047,-0.012573838233947754,-0.07661503553390503
1712257357253203700,6.98220361328125,-0.14578533172607422,-0.035329580307006836,-0.10062427818775177
1712257357263202600,6.99220263671875,-0.040902137756347656,-0.047350525856018066,-0.10315121710300446
1712257357273201400,7.002201416015625,0.025656700134277344,-0.05916905403137207,-0.1109839677810669
1712257357283200300,7.0122001953125,0.03966045379638672,-0.05734050273895264,-0.08526735007762909
1712257357293199000,7.02219921875,-0.020360946655273438,-0.044824838638305664,-0.020691782236099243
1712257357303198000,7.032197998046875,-0.049124717712402344,-0.016385912895202637,0.01295366883277893
1712257357313196800,7.04219677734375,-0.0994710922241211,0.017061591148376465,0.01781076192855835
1712257357323195600,7.052195556640625,-0.09962844848632812,0.05823981761932373,0.02511778473854065
1712257357333194200,7.0621943359375,-0.030481338500976562,0.030754685401916504,-0.022614985704421997
1712257357343193000,7.072193115234375,0.05286216735839844,0.00912177562713623,-0.05375227332115173
1712257357353191700,7.082191650390625,0.06201171875,-0.026892542839050293,-0.023482054471969604
1712257357363190500,7.0921904296875,0.06902408599853516,-0.011583328247070312,-0.006242990493774414
1712257357373189000,7.102189208984375,0.03331184387207031,0.011227607727050781,-0.0019403398036956787
1712257357383188000,7.11218798828125,-0.04526233673095703,0.03023374080657959,0.03583484888076782
1712257357393186600,7.1221865234375,-0.09740543365478516,0.048732638359069824,0.07813677191734314
1712257357403185400,7.132185302734375,-0.10433673858642578,0.06878530979156494,0.10919240117073059
1712257357413184000,7.14218408203125,-0.029933929443359375,0.10631108283996582,0.1170906126499176
1712257357423182800,7.152182861328125,0.042214393615722656,0.0810704231262207,0.08266326785087585
1712257357433181700,7.162181640625,0.02836322784423828,0.03789782524108887,-0.02120843529701233
1712257357443180300,7.17218017578125,-0.026109695434570312,0.0034627914428710938,-0.1278945505619049
1712257357453179100,7.18217919921875,-0.08303642272949219,-0.019151687622070312,-0.15527991950511932
1712257357463178000,7.192177978515625,-0.07790756225585938,-0.057739973068237305,-0.12554799020290375
1712257357473176600,7.202176513671875,0.0035800933837890625,-0.030129075050354004,-0.05267654359340668
1712257357483175400,7.212175537109375,0.13040447235107422,-0.0013092756271362305,0.030584603548049927
1712257357493174000,7.222174072265625,0.1231842041015625,-0.005973100662231445,0.07420840859413147
1712257357503172900,7.2321728515625,0.04892539978027344,-0.008270263671875,0.0724819004535675
1712257357513171700,7.242171630859375,-0.05408191680908203,0.010972023010253906,0.08331534266471863
1712257357523170300,7.25217041015625,-0.09003639221191406,0.018267512321472168,0.08159545063972473
1712257357533169200,7.262169189453125,-0.12116813659667969,0.023157238960266113,0.05973735451698303
1712257357543167700,7.272167724609375,-0.1259613037109375,-0.002956986427307129,0.010789692401885986
1712257357553166600,7.28216650390625,-0.0996713638305664,-0.03840959072113037,-0.016576319932937622
1712257357563165400,7.29216552734375,-0.07822608947753906,-0.05433154106140137,0.0013585686683654785
1712257357573164000,7.3021640625,-0.11663436889648438,-0.029529690742492676,0.01431584358215332
1712257357583163000,7.312162841796875,-0.15500354766845703,-0.00028836727142333984,0.030278384685516357
1712257357593161700,7.32216162109375,-0.14548015594482422,0.04567134380340576,0.051036447286605835
1712257357603160300,7.332160400390625,-0.11672115325927734,0.06253373622894287,0.07592758536338806
1712257357613159200,7.3421591796875,-0.07831668853759766,0.08390998840332031,0.15280914306640625
1712257357623157800,7.35215771484375,0.0057353973388671875,0.05684709548950195,0.11994871497154236
1712257357633156600,7.362156494140625,0.08028030395507812,-0.008747100830078125,0.07417884469032288
1712257357643155500,7.372155517578125,0.14519119262695312,-0.04033160209655762,-0.010601222515106201
1712257357653154000,7.382154052734375,0.12635326385498047,-0.08446133136749268,-0.04123756289482117
1712257357663153000,7.39215283203125,0.06657123565673828,-0.06773078441619873,-0.0026017725467681885
1712257357673151700,7.40215185546875,-0.007823944091796875,-0.033042192459106445,0.0038701891899108887
1712257357683150300,7.412150390625,-0.01770305633544922,-0.009784221649169922,-0.07229337096214294
1712257357693149200,7.422149169921875,0.010631561279296875,0.0018323659896850586,-0.11374247074127197
1712257357703148000,7.43214794921875,0.05093574523925781,-0.010639190673828125,-0.0753537267446518
1712257357713146600,7.442146728515625,0.04584693908691406,-0.042928338050842285,-0.03661304712295532
1712257357723145500,7.4521455078125,-0.016672134399414062,-0.04916059970855713,-0.05245053768157959
1712257357733144000,7.46214404296875,-0.06964969635009766,0.028467893600463867,-0.06741371750831604
1712257357743143000,7.472142822265625,-0.11770153045654297,0.04528927803039551,-0.08647730946540833
1712257357753141500,7.4821416015625,-0.05792522430419922,0.004122734069824219,-0.09581182897090912
1712257357763140400,7.492140380859375,0.04242706298828125,-0.06253719329833984,-0.07919548451900482
1712257357773139000,7.502138916015625,0.08748435974121094,-0.06785726547241211,-0.0631975531578064
1712257357783137800,7.5121376953125,0.029524803161621094,-0.0440443754196167,-0.08553040027618408
1712257357793136400,7.522136474609375,-0.02119731903076172,-0.027996301651000977,-0.1326938420534134
1712257357803135200,7.53213525390625,-0.045436859130859375,-0.012973666191101074,-0.1262415200471878
1712257357813133800,7.5421337890625,-0.07914161682128906,-0.010584235191345215,-0.08137911558151245
1712257357823132700,7.552132568359375,-0.11516857147216797,-0.020480871200561523,-0.07059139013290405
1712257357833131300,7.56213134765625,-0.10092544555664062,-0.008667588233947754,-0.021969899535179138
1712257357843130000,7.572130126953125,-0.05072975158691406,-0.004010438919067383,0.03468698263168335
1712257357853129000,7.58212890625,-0.0220489501953125,-0.013553142547607422,0.03397747874259949
1712257357863127600,7.59212744140625,-0.04366016387939453,-0.03244292736053467,-0.02992255985736847
1712257357873126400,7.60212646484375,-0.06534099578857422,-0.04394423961639404,-0.025479167699813843
1712257357883125200,7.612125244140625,-0.029651641845703125,-0.030965805053710938,0.015083938837051392
1712257357893123800,7.622123779296875,0.04909515380859375,0.004106879234313965,0.08478264510631561
1712257357903122700,7.632122802734375,0.0657358169555664,0.036240458488464355,0.10683928430080414
1712257357913121300,7.642121337890625,0.00841522216796875,0.01188039779663086,0.020244359970092773
1712257357923120000,7.6521201171875,-0.0008754730224609375,-0.011079192161560059,0.01825806498527527
1712257357933119000,7.662118896484375,-0.019652366638183594,-0.0033884048461914062,0.018199175596237183
1712257357943117600,7.67211767578125,-0.033659934997558594,0.004400968551635742,0.03508490324020386
1712257357953116400,7.682116455078125,-0.11720085144042969,0.03414797782897949,0.072316974401474
1712257357963115300,7.692115234375,-0.1601572036743164,0.03329133987426758,0.0843360424041748
1712257357973113900,7.70211376953125,-0.11240768432617188,0.03157353401184082,0.08283311128616333
1712257357983112700,7.71211279296875,-0.0266571044921875,0.0269925594329834,0.030548125505447388
1712257357993111600,7.722111572265625,0.006257057189941406,-0.0028706789016723633,0.040113091468811035
1712257358003110100,7.732110107421875,0.010556221008300781,0.01694023609161377,0.06344351172447205
1712257358013109000,7.74210888671875,0.022451400756835938,0.04647111892700195,0.08293196558952332
1712257358023107600,7.752107666015625,0.02048206329345703,0.06845545768737793,0.05767399072647095
1712257358033106400,7.7621064453125,0.00930023193359375,0.03326225280761719,0.005595475435256958
1712257358043105000,7.77210498046875,0.07001781463623047,0.02395498752593994,-0.012649983167648315
1712257358053103900,7.782103759765625,0.06841659545898438,-0.01607954502105713,-0.0020409226417541504
1712257358063102700,7.792102783203125,0.06892585754394531,-0.038010478019714355,-0.0132121741771698
1712257358073101600,7.8021015625,0.04995441436767578,-0.04636979103088379,-0.024675369262695312
1712257358083100400,7.812100341796875,0.02591991424560547,-0.031764984130859375,-0.0564081072807312
1712257358093099300,7.822099365234375,0.008913040161132812,-0.04519069194793701,-0.09395486116409302
1712257358103098400,7.832098388671875,-0.017610549926757812,-0.061388373374938965,-0.09546148777008057
1712257358113097200,7.84209716796875,-0.03687000274658203,-0.06130778789520264,-0.06579788029193878
1712257358123096300,7.852096435546875,-0.053627967834472656,-0.06901633739471436,-0.06745754182338715
1712257358133095200,7.86209521484375,-0.08965396881103516,-0.05456387996673584,-0.035127997398376465
1712257358143094300,7.87209423828125,-0.1257762908935547,-0.013186216354370117,-0.022012859582901
1712257358153093400,7.88209326171875,-0.16189098358154297,-0.0004972219467163086,-0.01413753628730774
1712257358163092500,7.892092529296875,-0.09975337982177734,0.021382570266723633,-0.028649672865867615
1712257358173091300,7.90209130859375,-0.09255504608154297,0.009082436561584473,-0.0439499169588089
1712257358183090400,7.91209033203125,-0.0828390121459961,-0.018293142318725586,-0.03300589323043823
1712257358193089500,7.922089599609375,-0.1066732406616211,-0.02400505542755127,-0.04079064726829529
1712257358203088600,7.932088623046875,-0.10666179656982422,-0.02443373203277588,-0.03841419517993927
1712257358213087700,7.942087646484375,-0.03492164611816406,0.00923776626586914,-0.01438303291797638
1712257358223086800,7.9520869140625,-0.0015363693237304688,0.0002518892288208008,-0.020155921578407288
1712257358233085700,7.962085693359375,0.05099964141845703,-0.01100778579711914,-0.002628013491630554
1712257358243084800,7.972084716796875,0.06290531158447266,-0.01784956455230713,0.01928943395614624
1712257358253084000,7.982083984375,0.048562049865722656,0.02514028549194336,0.050263404846191406
1712257358263083000,7.9920830078125,0.017606735229492188,0.06728112697601318,0.04742403328418732
