time,seconds_elapsed,z,y,x
1712257368381696000,0.077696044921875,-0.13501834869384766,0.3683748245239258,0.20219621062278748
1712257368391695000,0.087695068359375,-0.13263797760009766,0.35543620586395264,0.19659340381622314
1712257368401694500,0.097694580078125,-0.11774063110351562,0.33017289638519287,0.18224143981933594
1712257368411694000,0.107694091796875,-0.05221271514892578,0.3080437183380127,0.19325360655784607
1712257368421693400,0.117693359375,-0.013055801391601562,0.2702808380126953,0.1927691400051117
1712257368431692800,0.12769287109375,-0.03840446472167969,0.24872064590454102,0.12543103098869324
1712257368441692000,0.13769189453125,-0.04934120178222656,0.22452914714813232,0.12165245413780212
1712257368451691000,0.14769091796875,-0.017164230346679688,0.26263320446014404,0.1016642153263092
1712257368461690400,0.1576904296875,-0.030351638793945312,0.25715184211730957,0.14412003755569458
1712257368471689700,0.167689697265625,-0.033908843994140625,0.22523844242095947,0.15091419219970703
1712257368481689000,0.177689208984375,-0.07831096649169922,0.21331357955932617,0.15367388725280762
1712257368491688400,0.1876884765625,-0.065521240234375,0.181321382522583,0.11163178086280823
1712257368501687800,0.197687744140625,-0.04343223571777344,0.17006754875183105,0.10328298807144165
1712257368511687200,0.207687255859375,-0.043066978454589844,0.15511655807495117,0.13535922765731812
1712257368521686500,0.2176865234375,-0.01640796661376953,0.13109135627746582,0.15715697407722473
1712257368531685600,0.227685546875,-0.008967399597167969,0.17231059074401855,0.14712932705879211
1712257368541685000,0.23768505859375,0.005736351013183594,0.19893145561218262,0.18474584817886353
1712257368551684000,0.24768408203125,0.058814048767089844,0.2254236936569214,0.14782175421714783
1712257368561683500,0.257683349609375,0.05204486846923828,0.1777184009552002,0.11357042193412781
1712257368571682600,0.2676826171875,0.016280174255371094,0.09510433673858643,0.018989145755767822
1712257368581681700,0.277681640625,0.03027057647705078,-0.0022983551025390625,-0.05087736248970032
1712257368591680800,0.2876806640625,0.02448272705078125,-0.0539935827255249,-0.08737361431121826
1712257368601680000,0.297679931640625,0.042125701904296875,-0.03163909912109375,-0.03627043962478638
1712257368611679000,0.307678955078125,0.026088714599609375,-0.0014132261276245117,-0.0014668405055999756
1712257368621678000,0.317677978515625,0.00530242919921875,0.03580009937286377,0.009429931640625
1712257368631677200,0.32767724609375,-0.04166603088378906,0.0721430778503418,0.04001760482788086
1712257368641676300,0.33767626953125,-0.031083106994628906,0.0578998327255249,0.03179916739463806
1712257368651675100,0.347675048828125,-0.01820850372314453,0.010735154151916504,0.0231630802154541
1712257368661674200,0.35767431640625,-0.04161262512207031,-0.03951370716094971,0.005324631929397583
1712257368671673300,0.36767333984375,-0.04149055480957031,-0.028038740158081055,-0.011874109506607056
1712257368681672200,0.377672119140625,-0.0008764266967773438,-0.008386611938476562,-0.002613544464111328
1712257368691671300,0.38767138671875,-0.005724906921386719,0.018447279930114746,0.001289457082748413
1712257368701670100,0.397670166015625,-0.022324562072753906,0.03463447093963623,0.005179882049560547
1712257368711669200,0.407669189453125,-0.043494224548339844,0.04971766471862793,0.03559884428977966
1712257368721668000,0.417668212890625,-0.035701751708984375,0.0734713077545166,0.05316954851150513
1712257368731667000,0.4276669921875,-0.03724384307861328,0.06506574153900146,0.022222429513931274
1712257368741665800,0.437665771484375,-0.06988048553466797,0.04207587242126465,0.05627760291099548
1712257368751665000,0.447664794921875,-0.04984474182128906,0.014484882354736328,0.04175305366516113
1712257368761663500,0.45766357421875,-0.01561737060546875,0.01170814037322998,0.058210134506225586
1712257368771662300,0.467662353515625,0.02550506591796875,0.031777262687683105,0.04632300138473511
1712257368781661200,0.4776611328125,0.04484081268310547,0.05045664310455322,0.015891999006271362
1712257368791660000,0.487659912109375,0.08804512023925781,0.03824269771575928,-0.025951296091079712
1712257368801658600,0.49765869140625,0.09778976440429688,-0.0030771493911743164,-0.03394663333892822
1712257368811657500,0.507657470703125,0.09085655212402344,-0.018595337867736816,-0.0437261164188385
1712257368821656000,0.517656005859375,0.07675933837890625,-0.015199542045593262,-0.0456371009349823
1712257368831655000,0.527655029296875,0.02909374237060547,-0.018978118896484375,-0.015516281127929688
1712257368841653500,0.537653564453125,-0.047448158264160156,0.02081155776977539,0.00839996337890625
1712257368851652400,0.54765234375,-0.06653976440429688,0.0343782901763916,0.039271414279937744
1712257368861651000,0.55765087890625,-0.08325576782226562,0.04100489616394043,0.05034071207046509
1712257368871649800,0.56764990234375,-0.0952901840209961,0.019527912139892578,0.02259141206741333
1712257368881648400,0.5776484375,-0.08341121673583984,0.0030803680419921875,-0.005567222833633423
1712257368891647200,0.587647216796875,-0.08583641052246094,-0.011150121688842773,-0.024685680866241455
1712257368901645800,0.597645751953125,-0.06896495819091797,-0.009222865104675293,-0.041700512170791626
1712257368911644700,0.607644775390625,-0.03991127014160156,-0.04411721229553223,-0.06399855017662048
1712257368921643500,0.6176435546875,-0.05152702331542969,-0.07217705249786377,-0.08783361315727234
1712257368931642000,0.62764208984375,-0.02994251251220703,-0.05356025695800781,-0.07907724380493164
1712257368941641000,0.637640869140625,-0.02303028106689453,-0.024010419845581055,-0.0027731359004974365
1712257368951639800,0.647639892578125,0.03395557403564453,0.013840675354003906,0.044177234172821045
1712257368961638400,0.657638427734375,0.02855396270751953,-0.009796619415283203,0.00931847095489502
1712257368971637200,0.66763720703125,0.07093334197998047,-0.009066581726074219,0.04902815818786621
1712257368981635800,0.6776357421875,0.12534809112548828,0.015392780303955078,0.026050269603729248
1712257368991634700,0.687634765625,0.16069602966308594,0.04216265678405762,0.020826101303100586
1712257369001633500,0.697633544921875,0.17244815826416016,0.007516622543334961,0.03905877470970154
1712257369011632000,0.707632080078125,0.13663768768310547,-0.05013275146484375,-0.01738336682319641
1712257369021631000,0.717630859375,0.050502777099609375,-0.04077887535095215,0.0038855671882629395
1712257369031629800,0.7276298828125,-0.04056549072265625,0.009734511375427246,-0.004891574382781982
1712257369041628400,0.73762841796875,-0.10769844055175781,0.08402764797210693,0.030280739068984985
1712257369051627300,0.747627197265625,-0.10517692565917969,0.07358229160308838,0.07447278499603271
1712257369061625900,0.7576259765625,-0.06891632080078125,0.05060732364654541,0.10935282707214355
1712257369071624700,0.767624755859375,-0.06844902038574219,0.03953373432159424,0.09171748161315918
1712257369081623600,0.77762353515625,-0.07508468627929688,-0.0005739927291870117,-0.005259454250335693
1712257369091622100,0.7876220703125,-0.08654117584228516,-0.05762135982513428,-0.07920444011688232
1712257369101621000,0.79762109375,-0.04541301727294922,-0.1122046709060669,-0.051030367612838745
1712257369111619800,0.807619873046875,-0.045154571533203125,-0.07974720001220703,-0.02306041121482849
1712257369121618400,0.817618408203125,-0.06898784637451172,-0.02271115779876709,-0.01629003882408142
1712257369131617300,0.8276171875,-0.10018348693847656,0.01575446128845215,-0.022715777158737183
1712257369141616000,0.8376162109375,-0.05243492126464844,0.037708282470703125,-0.021627455949783325
1712257369151614700,0.84761474609375,-0.033555030822753906,0.005173206329345703,-0.029798835515975952
1712257369161613600,0.857613525390625,0.011495590209960938,-0.014681100845336914,-0.03277552127838135
1712257369171612200,0.867612060546875,0.04687309265136719,0.009072661399841309,-0.026377946138381958
1712257369181611000,0.877611083984375,0.07770156860351562,0.03417086601257324,-0.03957754373550415
1712257369191609900,0.88760986328125,0.11131954193115234,0.04068911075592041,-0.06745666265487671
1712257369201608400,0.8976083984375,0.0853719711303711,0.016810297966003418,-0.015155017375946045
1712257369211607300,0.907607177734375,0.009173393249511719,0.04538393020629883,0.011207252740859985
1712257369221606100,0.917606201171875,-0.009671211242675781,0.0935976505279541,-0.007775396108627319
1712257369231604700,0.927604736328125,-0.014121055603027344,0.07940387725830078,0.0020932555198669434
1712257369241603300,0.937603271484375,-0.020926475524902344,0.017273664474487305,-0.007765144109725952
1712257369251602200,0.947602294921875,0.0009145736694335938,-0.0011968612670898438,-0.020701289176940918
1712257369261600800,0.957600830078125,0.03949451446533203,-0.03376781940460205,-0.05593910813331604
1712257369271599600,0.967599609375,0.07563018798828125,-0.06126666069030762,-0.07222113013267517
1712257369281598200,0.97759814453125,0.008624076843261719,-0.07139909267425537,-0.0009846985340118408
1712257369291597000,0.98759716796875,-0.051421165466308594,-0.04236900806427002,-0.014995604753494263
1712257369301595600,0.997595703125,-0.07328510284423828,0.008737802505493164,0.009633749723434448
1712257369311594500,1.007594482421875,-0.06636333465576172,0.02866530418395996,0.05251908302307129
1712257369321593000,1.017593017578125,-0.10482406616210938,0.017155170440673828,0.058548927307128906
1712257369331592000,1.027592041015625,-0.109649658203125,-0.0233842134475708,0.05144047737121582
1712257369341590800,1.0375908203125,-0.08100318908691406,-0.03955399990081787,0.01468127965927124
1712257369351589600,1.047589599609375,-0.07876014709472656,-0.060160040855407715,-0.04142192006111145
1712257369361588200,1.057588134765625,-0.05732154846191406,-0.10027718544006348,-0.07764014601707458
1712257369371587000,1.067587158203125,-0.028879165649414062,-0.10615348815917969,-0.08209112286567688
1712257369381585700,1.077585693359375,0.018568992614746094,-0.08743011951446533,-0.06232917308807373
1712257369391584500,1.08758447265625,0.034790992736816406,-0.06111586093902588,-0.015914052724838257
1712257369401583000,1.0975830078125,0.05826568603515625,0.020032405853271484,0.05641177296638489
1712257369411582000,1.10758203125,-0.009012222290039062,0.06902217864990234,0.06857219338417053
1712257369421580800,1.117580810546875,-0.0736074447631836,0.0757899284362793,0.052603960037231445
1712257369431579400,1.127579345703125,-0.11655807495117188,0.07256293296813965,0.05800926685333252
1712257369441578200,1.137578125,-0.12833595275878906,0.05021953582763672,0.01668238639831543
1712257369451577000,1.1475771484375,-0.08021068572998047,0.006303071975708008,-0.047093093395233154
1712257369461575700,1.15757568359375,-0.01787281036376953,-0.02971971035003662,-0.014989256858825684
1712257369471574500,1.167574462890625,0.032466888427734375,-0.043972015380859375,0.007099032402038574
1712257369481573000,1.177572998046875,0.051566123962402344,0.018909454345703125,0.024565130472183228
1712257369491572000,1.187572021484375,0.010908126831054688,0.045144081115722656,0.0025334060192108154
1712257369501570800,1.19757080078125,0.013492584228515625,0.09683060646057129,0.060338884592056274
1712257369511569400,1.2075693359375,0.045083045959472656,0.10189962387084961,0.08136868476867676
1712257369521568300,1.217568359375,0.074432373046875,0.08261919021606445,0.04346388578414917
1712257369531567000,1.227567138671875,0.043951988220214844,0.020099639892578125,0.012852698564529419
1712257369541566200,1.237566162109375,0.02537059783935547,-0.023113489151000977,-0.03843677043914795
1712257369551565000,1.24756494140625,0.0065860748291015625,-0.04411184787750244,-0.03326505422592163
1712257369561564200,1.257564208984375,0.0067081451416015625,-0.03766429424285889,-0.03735131025314331
1712257369571563000,1.26756298828125,0.028272628784179688,-0.03304266929626465,-0.07522863149642944
1712257369581562000,1.27756201171875,-0.00310516357421875,-0.02987205982208252,-0.06613731384277344
1712257369591561200,1.287561279296875,-0.06320858001708984,-0.06515991687774658,-0.013293862342834473
1712257369601560300,1.297560302734375,-0.08271121978759766,-0.05209660530090332,0.013239264488220215
1712257369611559400,1.307559326171875,-0.114349365234375,-0.011764764785766602,0.008010804653167725
1712257369621558300,1.317558349609375,-0.11008071899414062,0.0071032047271728516,-0.04533490538597107
1712257369631557400,1.327557373046875,-0.10808944702148438,-0.003303050994873047,-0.06521692872047424
1712257369641556500,1.337556396484375,-0.06762409210205078,-0.062378883361816406,-0.02044832706451416
1712257369651555600,1.3475556640625,-0.008007049560546875,-0.09491240978240967,-0.02686971426010132
1712257369661554700,1.3575546875,0.06333255767822266,-0.07110559940338135,-0.048053741455078125
1712257369671553800,1.3675537109375,0.0410614013671875,-0.07751202583312988,-0.058648884296417236
1712257369681553000,1.377552978515625,-0.005436897277832031,-0.06858611106872559,-0.06255209445953369
1712257369691552000,1.387552001953125,0.01021575927734375,-0.049746036529541016,-0.05369555950164795
1712257369701551000,1.397551025390625,0.013960838317871094,-0.004689335823059082,0.0070032477378845215
1712257369711550200,1.40755029296875,0.006051063537597656,0.04397261142730713,0.03977370262145996
1712257369721549300,1.41754931640625,-0.044480323791503906,0.07624638080596924,0.11909627914428711
1712257369731548400,1.42754833984375,-0.056201934814453125,0.11840629577636719,0.12259167432785034
1712257369741547500,1.437547607421875,-0.11055660247802734,0.12030327320098877,0.10557365417480469
1712257369751546600,1.447546630859375,-0.1144552230834961,0.07109832763671875,0.030982881784439087
1712257369761545500,1.45754541015625,-0.06577014923095703,0.015038847923278809,0.002427011728286743
1712257369771544600,1.467544677734375,0.06172943115234375,-0.05191922187805176,-0.02427041530609131
1712257369781543700,1.477543701171875,0.13865280151367188,-0.0959012508392334,-0.0366155207157135
1712257369791542800,1.487542724609375,0.1889934539794922,-0.07417380809783936,0.009067535400390625
1712257369801542000,1.4975419921875,0.1650238037109375,0.0005738735198974609,0.057527899742126465
1712257369811541000,1.507541015625,0.07184410095214844,0.08139228820800781,0.05823710560798645
1712257369821540000,1.5175400390625,-0.020934104919433594,0.0930854082107544,0.0597170889377594
1712257369831539000,1.5275390625,-0.09425544738769531,0.06979060173034668,0.05889475345611572
1712257369841537800,1.537537841796875,-0.08374500274658203,0.02969527244567871,0.024083703756332397
1712257369851537000,1.547536865234375,-0.06181526184082031,-0.0030431747436523438,-0.0032172799110412598
1712257369861535700,1.55753564453125,-0.04258155822753906,-0.0008041858673095703,-0.01141577959060669
1712257369871534300,1.567534423828125,-0.06407546997070312,-0.015335440635681152,0.0025129616260528564
1712257369881533200,1.577533203125,-0.1070261001586914,-0.013634204864501953,-0.052583783864974976
1712257369891532000,1.587531982421875,-0.049271583557128906,-0.012648582458496094,-0.0740545392036438
1712257369901531000,1.59753076171875,-0.07757949829101562,-0.04578256607055664,-0.05732569098472595
1712257369911529500,1.607529541015625,-0.10119342803955078,-0.045182108879089355,-0.037136346101760864
1712257369921528300,1.6175283203125,-0.08678627014160156,-0.038718581199645996,-0.044277578592300415
1712257369931527000,1.62752685546875,-0.02242279052734375,-0.023515939712524414,-0.07066825032234192
1712257369941525800,1.63752587890625,0.06561946868896484,-0.02857530117034912,-0.056481748819351196
1712257369951524600,1.647524658203125,0.05060386657714844,-0.023520350456237793,-0.047240257263183594
1712257369961523200,1.657523193359375,0.018952369689941406,-0.04314899444580078,-0.02770194411277771
1712257369971522000,1.66752197265625,0.011370658874511719,-0.010776281356811523,-0.036582499742507935
1712257369981520600,1.677520751953125,-0.029590606689453125,-0.00540471076965332,-0.06698283553123474
1712257369991519500,1.68751953125,-0.03219127655029297,-0.012320160865783691,-0.06831461191177368
1712257370001518300,1.697518310546875,-0.05162334442138672,-0.05479550361633301,-0.07444572448730469
1712257370011517000,1.707516845703125,-0.004215240478515625,-0.06516873836517334,-0.059140801429748535
1712257370021515800,1.717515869140625,0.0023241043090820312,-0.06982195377349854,-0.006157934665679932
1712257370031514400,1.727514404296875,0.013594627380371094,-0.01654338836669922,0.057894885540008545
1712257370041513200,1.73751318359375,-0.006150245666503906,0.060355544090270996,0.09939256310462952
1712257370051512000,1.747511962890625,-0.039886474609375,0.11175644397735596,0.110964834690094
1712257370061510700,1.7575107421875,-0.053989410400390625,0.14912664890289307,0.12371841073036194
1712257370071509500,1.767509521484375,-0.03647613525390625,0.1149665117263794,0.08494389057159424
1712257370081508400,1.77750830078125,-0.011559486389160156,0.029615402221679688,0.021555334329605103
1712257370091507000,1.7875068359375,0.015589714050292969,-0.01905357837677002,-0.005816996097564697
1712257370101505800,1.797505859375,0.016190528869628906,-0.03092968463897705,-0.008573025465011597
1712257370111504600,1.807504638671875,-0.016912460327148438,-0.015888094902038574,-0.019455939531326294
1712257370121503200,1.817503173828125,-0.03338146209716797,0.01151418685913086,-0.03887021541595459
1712257370131502000,1.827502197265625,0.007630348205566406,-0.001875162124633789,-0.06308344006538391
1712257370141500700,1.837500732421875,0.03180122375488281,-0.012520074844360352,0.006268203258514404
1712257370151499500,1.84749951171875,0.03196144104003906,-0.022763729095458984,0.04650318622589111
1712257370161498400,1.857498291015625,-0.020549774169921875,-0.013842582702636719,0.033967018127441406
1712257370171497000,1.8674970703125,-0.04211997985839844,-0.0256345272064209,0.021632641553878784
1712257370181495800,1.877495849609375,-0.06621456146240234,-0.020151257514953613,0.019361943006515503
1712257370191494700,1.88749462890625,-0.06638240814208984,-0.026406168937683105,-0.0004089176654815674
1712257370201493200,1.8974931640625,-0.028288841247558594,-0.027590632438659668,0.034619688987731934
1712257370211492000,1.9074921875,-0.021294593811035156,-0.031209826469421387,0.006989866495132446
1712257370221491000,1.917490966796875,-0.004801750183105469,-0.01292872428894043,-0.027692586183547974
1712257370231489500,1.927489501953125,-0.03375720977783203,-0.02855384349822998,-0.004062026739120483
1712257370241488400,1.93748828125,-0.02673816680908203,-0.0014269351959228516,0.019869893789291382
1712257370251487000,1.947487060546875,0.0067424774169921875,-0.01553201675415039,-0.011604130268096924
1712257370261485800,1.95748583984375,-0.012564659118652344,-0.04115462303161621,-0.05464118719100952
1712257370271484400,1.967484375,-0.029603004455566406,-0.04491567611694336,-0.05321356654167175
1712257370281483300,1.977483154296875,-0.05164623260498047,-0.04550981521606445,-0.07927444577217102
1712257370291481900,1.98748193359375,-0.03546142578125,-0.03142225742340088,-0.07620799541473389
1712257370301480700,1.997480712890625,0.0382843017578125,-0.00815129280090332,-0.030424267053604126
1712257370311479300,2.007479248046875,0.045180320739746094,-0.007056713104248047,0.02121824026107788
1712257370321478100,2.01747802734375,-0.0029354095458984375,0.05371570587158203,0.041285812854766846
1712257370331476700,2.027476806640625,-0.06036567687988281,0.07738924026489258,0.029858171939849854
1712257370341475600,2.0374755859375,-0.10555076599121094,0.07816791534423828,0.0329684317111969
1712257370351474200,2.04747412109375,-0.0930013656616211,0.032332658767700195,0.049566030502319336
1712257370361473000,2.05747314453125,-0.037413597106933594,0.015764236450195312,0.02905440330505371
1712257370371471600,2.0674716796875,-0.020380020141601562,0.009958982467651367,-0.008271932601928711
1712257370381470500,2.077470458984375,-0.04182910919189453,-0.016805410385131836,-0.044417381286621094
1712257370391469300,2.08746923828125,-0.03716087341308594,-0.023781538009643555,-0.0665925145149231
1712257370401468000,2.097468017578125,0.03204917907714844,-0.03043222427368164,-0.11187770962715149
1712257370411466800,2.107466796875,0.029399871826171875,-0.056145548820495605,-0.08497974276542664
1712257370421465600,2.117465576171875,0.05537605285644531,-0.02165961265563965,-0.04292377829551697
1712257370431464200,2.127464111328125,0.055004119873046875,0.02260565757751465,0.01755911111831665
1712257370441463000,2.137463134765625,0.06675434112548828,0.07605719566345215,0.06926307082176208
1712257370451462000,2.1474619140625,0.030968666076660156,0.06351828575134277,0.07381057739257812
1712257370461460500,2.15746044921875,-0.01657581329345703,0.05483889579772949,0.07313999533653259
1712257370471459300,2.167459228515625,-0.09261131286621094,0.04026961326599121,0.03152868151664734
1712257370481458000,2.1774580078125,-0.13265609741210938,0.0013146400451660156,-0.016893744468688965
1712257370491456800,2.187456787109375,-0.1800403594970703,-0.008310556411743164,-0.019004106521606445
1712257370501455600,2.19745556640625,-0.11026763916015625,-0.012315034866333008,-0.023790627717971802
1712257370511454200,2.2074541015625,-0.06220245361328125,-0.022588253021240234,-0.01741945743560791
1712257370521453000,2.217453125,-0.011858940124511719,-0.07294237613677979,-0.04251477122306824
1712257370531451600,2.22745166015625,-0.01207733154296875,-0.08863484859466553,-0.047426193952560425
1712257370541450500,2.237450439453125,-0.04599761962890625,-0.10844981670379639,-0.034597694873809814
1712257370551449300,2.247449462890625,-0.07288646697998047,-0.07974457740783691,-0.014112323522567749
1712257370561448000,2.257447998046875,-0.073577880859375,-0.019274353981018066,0.03525260090827942
1712257370571446800,2.26744677734375,-0.04313850402832031,0.05583524703979492,0.08552300930023193
1712257370581445600,2.277445556640625,-0.0051593780517578125,0.048330068588256836,0.08547177910804749
1712257370591444200,2.2874443359375,-0.007586479187011719,-0.008180379867553711,0.06238684058189392
1712257370601443000,2.297443115234375,-0.0026578903198242188,-0.02716982364654541,0.04152947664260864
1712257370611442000,2.30744189453125,-0.012004852294921875,-0.03463125228881836,0.02316218614578247
1712257370621440800,2.317440673828125,-0.08364105224609375,-0.02762138843536377,-0.004373610019683838
1712257370631439600,2.327439697265625,-0.11703014373779297,-0.006183028221130371,0.017118245363235474
1712257370641438500,2.3374384765625,-0.10495567321777344,0.04896283149719238,0.09100267291069031
1712257370651437600,2.3474375,-0.08314895629882812,0.09424591064453125,0.119713693857193
1712257370661436400,2.3574365234375,0.06826114654541016,0.10741448402404785,0.0647026002407074
1712257370671435500,2.367435546875,0.05948162078857422,0.006848573684692383,0.02711394429206848
1712257370681434400,2.377434326171875,-0.03580474853515625,-0.06650102138519287,-0.01477968692779541
1712257370691433500,2.38743359375,-0.026208877563476562,-0.05187392234802246,-0.025960266590118408
1712257370701432600,2.3974326171875,0.04764842987060547,-0.006674528121948242,-0.056280165910720825
1712257370711431700,2.407431640625,0.14060020446777344,-0.016144394874572754,-0.09907162189483643
1712257370721430800,2.4174306640625,0.1257476806640625,-0.0710899829864502,-0.10705024003982544
1712257370731429600,2.4274296875,0.060527801513671875,-0.1404951810836792,-0.1055687665939331
1712257370741428700,2.4374287109375,-0.05523681640625,-0.13242149353027344,-0.09741976857185364
1712257370751427800,2.447427734375,-0.08492755889892578,-0.011435627937316895,-0.033273667097091675
1712257370761427000,2.457427001953125,-0.15029048919677734,0.04149341583251953,0.03263145685195923
1712257370771426000,2.467426025390625,-0.17213726043701172,0.06646120548248291,0.07760143280029297
1712257370781425000,2.4774248046875,-0.18648910522460938,0.047165870666503906,0.1042749285697937
1712257370791424000,2.487424072265625,-0.14818382263183594,0.006537437438964844,0.0609106719493866
1712257370801423000,2.497423095703125,-0.026288986206054688,-0.013695359230041504,-0.02896326780319214
1712257370811422200,2.507422119140625,0.05216789245605469,-0.07768797874450684,-0.07372310757637024
1712257370821421300,2.51742138671875,0.11607742309570312,-0.09528601169586182,-0.06824466586112976
1712257370831420200,2.527420166015625,0.1035451889038086,-0.14027082920074463,-0.06664267182350159
1712257370841419300,2.537419189453125,0.05736732482910156,-0.12990808486938477,-0.0898624062538147
1712257370851418400,2.54741845703125,0.032608985900878906,-0.0760718584060669,-0.06885647773742676
1712257370861417500,2.55741748046875,0.07497406005859375,-0.03925609588623047,0.004215359687805176
1712257370871416600,2.56741650390625,0.043182373046875,-0.012214183807373047,0.08872932195663452
1712257370881415700,2.577415771484375,0.028066635131835938,0.03204929828643799,0.1012219786643982
1712257370891414500,2.58741455078125,0.05121421813964844,0.07430672645568848,0.1440926492214203
1712257370901413600,2.59741357421875,0.021887779235839844,0.11837625503540039,0.13255515694618225
1712257370911412700,2.607412841796875,0.03860950469970703,0.10494256019592285,0.09336411952972412
1712257370921411600,2.61741162109375,-0.006295204162597656,0.0694723129272461,0.017417311668395996
1712257370931410400,2.627410400390625,-0.06988906860351562,0.03879952430725098,-0.02448853850364685
1712257370941409500,2.637409423828125,-0.10454559326171875,0.016419172286987305,-0.09150800108909607
1712257370951408000,2.647408203125,-0.10816287994384766,-0.005933523178100586,-0.12320026755332947
1712257370961407000,2.657406982421875,-0.06664085388183594,-0.014846205711364746,-0.053191184997558594
1712257370971405800,2.66740576171875,-0.008754730224609375,-0.012267827987670898,-0.0405617356300354
1712257370981404700,2.67740478515625,0.008025169372558594,-0.0032099485397338867,-0.007588058710098267
1712257370991403300,2.6874033203125,0.014925956726074219,0.007226109504699707,0.013808846473693848
1712257371001402000,2.697402099609375,0.029006004333496094,0.008228540420532227,-0.017999112606048584
1712257371011400700,2.707400634765625,0.038428306579589844,-0.03925132751464844,-0.04281148314476013
1712257371021399600,2.717399658203125,0.014410972595214844,-0.03683829307556152,0.004213154315948486
1712257371031398100,2.727398193359375,-0.03820610046386719,-0.06368505954742432,-0.040238767862319946
1712257371041397000,2.73739697265625,-0.0718393325805664,-0.05642545223236084,-0.06923246383666992
1712257371051395600,2.7473955078125,-0.0817728042602539,-0.05058550834655762,-0.06138095259666443
1712257371061394400,2.75739453125,-0.060863494873046875,-0.05053985118865967,-0.05114588141441345
1712257371071393000,2.76739306640625,-0.03774547576904297,-0.058949947357177734,-0.039478957653045654
1712257371081391900,2.777391845703125,-0.050482749938964844,-0.05789458751678467,-0.02378055453300476
1712257371091390500,2.787390380859375,-0.055840492248535156,-0.05050992965698242,0.04892417788505554
1712257371101389300,2.797389404296875,-0.05375480651855469,-0.0009877681732177734,0.05795520544052124
1712257371111388200,2.80738818359375,-0.01785755157470703,0.04503345489501953,0.0822693407535553
1712257371121386800,2.81738671875,-0.02714061737060547,0.022640228271484375,0.0508248507976532
1712257371131385600,2.827385498046875,-0.05564403533935547,-0.028358936309814453,0.01792028546333313
1712257371141384200,2.83738427734375,-0.010231971740722656,-0.008510351181030273,0.05486533045768738
1712257371151383000,2.847383056640625,0.04466533660888672,0.021665573120117188,0.037813007831573486
1712257371161382000,2.8573818359375,0.0853118896484375,0.046590328216552734,0.046637117862701416
1712257371171380500,2.86738037109375,0.11435222625732422,0.03391432762145996,0.06223487854003906
1712257371181379300,2.87737939453125,0.12462806701660156,0.04094743728637695,0.09908837080001831
1712257371191378200,2.887378173828125,0.1399974822998047,0.08257806301116943,0.14481708407402039
1712257371201376800,2.897376708984375,0.25151824951171875,0.16328060626983643,0.1561543345451355
1712257371211375600,2.907375732421875,0.5455341339111328,0.14588701725006104,0.22160065174102783
1712257371221374500,2.91737451171875,0.9667730331420898,0.14654195308685303,0.39067983627319336
1712257371231373000,2.927373046875,1.670811653137207,0.26895928382873535,0.6162084341049194
1712257371241372000,2.937371826171875,2.3548173904418945,0.2886800765991211,0.6971185207366943
1712257371251370500,2.94737060546875,2.4500036239624023,0.238755464553833,0.5446969866752625
1712257371261369300,2.957369384765625,2.182560920715332,0.1802208423614502,0.2967231571674347
1712257371271368200,2.9673681640625,1.6944961547851562,0.18286633491516113,0.061404913663864136
1712257371281366800,2.97736669921875,1.165724754333496,0.02506566047668457,-0.0676104724407196
1712257371291365600,2.98736572265625,0.9001903533935547,-0.019300460815429688,-0.08765503764152527
1712257371301364200,2.9973642578125,0.7324094772338867,-0.1640000343322754,0.21405676007270813
1712257371311363000,3.007363037109375,0.3988819122314453,-0.08337950706481934,0.3808586001396179
1712257371321362000,3.01736181640625,0.6922159194946289,0.17516255378723145,0.6266170740127563
1712257371331360500,3.027360595703125,0.8700180053710938,0.19810795783996582,0.9872323274612427
1712257371341359400,3.037359375,1.1510686874389648,0.26914477348327637,0.8269874453544617
1712257371351358200,3.047358154296875,1.3927021026611328,0.1674349308013916,0.41213458776474
1712257371361356800,3.057356689453125,1.489105224609375,-0.10949301719665527,0.05284130573272705
1712257371371355600,3.067355712890625,1.2119274139404297,-0.4424552917480469,0.056096941232681274
1712257371381354200,3.077354248046875,0.6950006484985352,-0.6218292713165283,0.14267787337303162
1712257371391353000,3.08735302734375,0.08930683135986328,-0.6061310768127441,0.03957521915435791
1712257371401351700,3.0973515625,-0.2539510726928711,-0.5276398658752441,-0.14200454950332642
1712257371411350500,3.1073505859375,-0.5752029418945312,-0.3385920524597168,-0.14547917246818542
1712257371421349000,3.11734912109375,-0.8652091026306152,-0.07824230194091797,0.11086758971214294
1712257371431348000,3.127347900390625,-0.6776537895202637,0.06478261947631836,0.1306285262107849
1712257371441346800,3.137346923828125,-0.3548402786254883,-0.021716594696044922,-0.07717107236385345
1712257371451345400,3.147345458984375,0.37334728240966797,-0.33986902236938477,-0.5275309681892395
1712257371461344300,3.15734423828125,1.6460943222045898,-0.6966605186462402,-0.9174102544784546
1712257371471342800,3.1673427734375,2.717534065246582,-0.9615836143493652,-0.8012338876724243
1712257371481341400,3.177341552734375,2.92222261428833,-1.0965638160705566,-0.42936867475509644
1712257371491340300,3.18734033203125,1.8693370819091797,-0.9740753173828125,-0.07744623720645905
1712257371501339100,3.197339111328125,0.3637580871582031,-0.792198657989502,0.10416299104690552
1712257371511337700,3.207337646484375,-1.1057753562927246,-0.39714527130126953,-0.09854979813098907
1712257371521336600,3.217336669921875,-2.4545764923095703,-0.10208749771118164,-0.23665675520896912
1712257371531662600,3.22766259765625,-3.512247085571289,0.05053901672363281,-0.1251276433467865
1712257371541661200,3.2376611328125,-3.4761459827423096,0.0381016731262207,0.014881864190101624
1712257371551660000,3.247659912109375,-1.6020965576171875,-0.1969442367553711,-0.02587956190109253
1712257371561659000,3.257658935546875,0.5195517539978027,-0.3946042060852051,0.058991044759750366
1712257371571657700,3.26765771484375,1.3939852714538574,-0.39072084426879883,0.19342544674873352
1712257371581656300,3.27765625,0.71746826171875,-0.23661279678344727,0.2831934094429016
1712257371591655200,3.2876552734375,-0.8426961898803711,-0.17517805099487305,0.11630848050117493
1712257371601654000,3.297654052734375,-2.2343196868896484,-0.19296646118164062,-0.2106902003288269
1712257371611652600,3.307652587890625,-3.161147356033325,-0.188201904296875,-0.28434476256370544
1712257371621651500,3.3176513671875,-3.6683058738708496,-0.01683807373046875,0.02917906641960144
1712257371631650000,3.327650146484375,-3.4107449054718018,-0.09260940551757812,-0.04568418860435486
1712257371641649000,3.33764892578125,-2.359550714492798,-0.23450231552124023,-0.13058015704154968
1712257371651647500,3.3476474609375,-0.7000060081481934,-0.5029892921447754,-0.36137205362319946
1712257371661646300,3.357646240234375,1.011392593383789,-0.619077205657959,-0.41236016154289246
1712257371671645200,3.367645263671875,2.2384276390075684,-0.6995325088500977,-0.31925898790359497
1712257371681643800,3.377643798828125,2.0883278846740723,-0.6729707717895508,-0.3435097932815552
1712257371691642600,3.387642578125,1.125767707824707,-0.5591163635253906,-0.501022219657898
1712257371701641500,3.397641357421875,-0.022294998168945312,-0.42207765579223633,-0.5976154208183289
1712257371711640300,3.407640380859375,-0.9776244163513184,-0.2461223602294922,-0.4560379981994629
1712257371721639200,3.41763916015625,-1.5512685775756836,-0.1556415557861328,-0.29490792751312256
1712257371731638000,3.427637939453125,-1.5093390941619873,-0.1951427459716797,-0.06255945563316345
1712257371741636900,3.437636962890625,-1.0376403331756592,-0.16501522064208984,0.3011207580566406
1712257371751635700,3.4476357421875,-0.8307836055755615,-0.10495281219482422,0.5099853277206421
1712257371761634600,3.457634521484375,-0.7621567249298096,-0.14015769958496094,0.4825645089149475
1712257371771633400,3.46763330078125,-1.5984292030334473,-0.301025390625,0.05071580410003662
1712257371781632300,3.47763232421875,-1.8040547370910645,-0.4899730682373047,-0.18011295795440674
1712257371791631400,3.48763134765625,-1.9899814128875732,-0.5568466186523438,-0.1504303514957428
1712257371801630200,3.497630126953125,-2.40397047996521,-0.5370388031005859,-0.01582556962966919
1712257371811629000,3.507629150390625,-2.6860768795013428,-0.4289102554321289,0.2669437527656555
1712257371821628000,3.5176279296875,-2.8149194717407227,-0.28824424743652344,0.39748698472976685
1712257371831626800,3.527626708984375,-2.700678586959839,-0.1920919418334961,0.3046938180923462
1712257371841625600,3.53762548828125,-2.563051223754883,-0.2685213088989258,0.2501862049102783
1712257371851624400,3.54762451171875,-2.2956204414367676,-0.30809497833251953,0.41181033849716187
1712257371861623300,3.557623291015625,-1.867037057876587,-0.26366329193115234,0.5371677279472351
1712257371871622100,3.5676220703125,-1.278676986694336,-0.15917682647705078,0.7727587223052979
1712257371881621000,3.57762109375,-0.5275979042053223,-0.08922004699707031,0.9245375394821167
1712257371891619800,3.587619873046875,-0.013138294219970703,-0.005110740661621094,0.9941403865814209
1712257371901618700,3.59761865234375,0.26920080184936523,0.06784534454345703,0.8340729475021362
1712257371911617500,3.607617431640625,0.27093029022216797,0.18119430541992188,0.5952950119972229
1712257371921616400,3.617616455078125,-0.10508060455322266,0.08053016662597656,0.21640530228614807
1712257371931615200,3.627615234375,-0.4194002151489258,-0.08960533142089844,-0.018219977617263794
1712257371941614000,3.637614013671875,-0.5182209014892578,-0.2220921516418457,-0.17213788628578186
1712257371951613000,3.647613037109375,-0.7283573150634766,-0.34189701080322266,-0.3896258771419525
1712257371961611800,3.65761181640625,-1.0602936744689941,-0.55340576171875,-0.4714405834674835
1712257371971610600,3.667610595703125,-1.4962162971496582,-0.6587939262390137,-0.3867347538471222
1712257371981609500,3.677609375,-1.6215715408325195,-0.7486066818237305,-0.2899313271045685
1712257371991608300,3.6876083984375,-1.219362735748291,-0.7755417823791504,-0.029569953680038452
1712257372001607200,3.697607177734375,-0.4225039482116699,-0.6993823051452637,0.4385894238948822
1712257372011606000,3.70760595703125,0.32814645767211914,-0.7710046768188477,0.5809000730514526
1712257372021604900,3.71760498046875,0.6941108703613281,-0.9318752288818359,0.4095761775970459
1712257372031603500,3.727603515625,0.5500268936157227,-0.9577007293701172,-0.02571217715740204
1712257372041602300,3.737602294921875,0.31981515884399414,-0.9172763824462891,-0.6455475687980652
1712257372051601000,3.747600830078125,-0.05619335174560547,-0.8100652694702148,-1.0676807165145874
1712257372061599700,3.757599853515625,-0.47310829162597656,-0.8361873626708984,-1.2798504829406738
1712257372071598300,3.767598388671875,-0.5195345878601074,-0.8032107353210449,-1.1934881210327148
1712257372081597200,3.77759716796875,-0.3667912483215332,-0.8388619422912598,-1.0068391561508179
1712257372091595800,3.787595703125,0.08052921295166016,-0.849764347076416,-0.48793551325798035
1712257372101594600,3.7975947265625,1.2527074813842773,-0.7257881164550781,0.23836234211921692
1712257372111593200,3.80759326171875,1.8230524063110352,-0.6141905784606934,0.7460267543792725
1712257372121592000,3.817592041015625,1.874922752380371,-0.4980034828186035,0.6425986289978027
1712257372131590700,3.827590576171875,1.608229637145996,-0.43387365341186523,0.16571545600891113
1712257372141589500,3.837589599609375,1.2449979782104492,-0.47533130645751953,-0.3403375744819641
1712257372151588400,3.84758837890625,0.9777746200561523,-0.5661783218383789,-0.7543303966522217
1712257372161587000,3.8575869140625,0.8147745132446289,-0.5563502311706543,-0.6314615607261658
1712257372171585800,3.867585693359375,0.5587711334228516,-0.3946356773376465,-0.3602672219276428
1712257372181584600,3.877584716796875,0.2375326156616211,-0.1903390884399414,-0.09398330748081207
1712257372191583200,3.887583251953125,0.10550880432128906,-0.03221607208251953,0.09371420741081238
1712257372201582000,3.89758203125,0.026891708374023438,0.010813713073730469,0.21289357542991638
1712257372211581000,3.907580810546875,-0.140289306640625,-0.04337596893310547,0.3053293824195862
1712257372221579500,3.91757958984375,-0.16022109985351562,-0.14503860473632812,0.14287146925926208
1712257372231578400,3.927578369140625,-0.213714599609375,-0.2439279556274414,-0.1203988790512085
1712257372241577000,3.937576904296875,-0.34420204162597656,-0.430248498916626,-0.3202328681945801
1712257372251575800,3.947575927734375,-0.44446563720703125,-0.5301365852355957,-0.266828328371048
1712257372261574700,3.95757470703125,-0.5555181503295898,-0.6136176586151123,-0.2618281841278076
1712257372271573200,3.9675732421875,-0.5471467971801758,-0.6455514430999756,-0.2002853900194168
1712257372281572000,3.977572021484375,-0.18091869354248047,-0.5616791248321533,0.05635470151901245
1712257372291571000,3.987571044921875,0.04897022247314453,-0.33895277976989746,0.27298495173454285
1712257372301569500,3.997569580078125,-0.2119731903076172,-0.2330636978149414,0.4117632210254669
1712257372311568400,4.007568359375,-0.29730796813964844,-0.16753244400024414,0.46032750606536865
1712257372321567200,4.017567138671875,0.052535057067871094,-0.05888628959655762,0.33735600113868713
1712257372331565800,4.02756591796875,0.3320188522338867,-0.04935932159423828,0.16287177801132202
1712257372341564700,4.037564697265625,0.057468414306640625,-0.24786114692687988,-0.21734745800495148
1712257372351563300,4.047563232421875,0.1500244140625,-0.3660597801208496,-0.19285765290260315
1712257372361562000,4.05756201171875,0.27912235260009766,-0.4807267189025879,-0.27208250761032104
1712257372371561000,4.06756103515625,0.20815467834472656,-0.5250762701034546,-0.12683811783790588
1712257372381559600,4.0775595703125,0.3116617202758789,-0.4384901523590088,0.12563568353652954
1712257372391558400,4.087558349609375,0.6836252212524414,-0.24257612228393555,0.35580918192863464
1712257372401557000,4.097556884765625,1.1973457336425781,-0.044123053550720215,0.4834859371185303
1712257372411555800,4.107555908203125,1.676015853881836,0.1487339735031128,0.5676109790802002
1712257372421554700,4.1175546875,2.0002307891845703,0.18523120880126953,0.6462582349777222
1712257372431553300,4.12755322265625,1.9522466659545898,0.10453927516937256,0.47486457228660583
1712257372441552100,4.13755224609375,1.526789665222168,-0.04367506504058838,0.24509122967720032
1712257372451550700,4.14755078125,1.0706052780151367,-0.20111382007598877,0.1326865255832672
1712257372461549600,4.157549560546875,0.7794876098632812,-0.15627789497375488,-0.046221643686294556
1712257372471548200,4.167548095703125,0.8100576400756836,-0.015837788581848145,-0.10221126675605774
1712257372481547000,4.177547119140625,1.1900644302368164,0.07882022857666016,-0.04927933216094971
1712257372491545600,4.187545654296875,1.36181640625,0.07284820079803467,0.1827685832977295
1712257372501544400,4.19754443359375,1.3092422485351562,0.07267403602600098,0.3295775353908539
1712257372511543000,4.20754296875,1.176316261291504,0.0735330581665039,0.2822808027267456
1712257372521542000,4.2175419921875,0.7473297119140625,0.03719496726989746,0.061062783002853394
1712257372531540500,4.22754052734375,0.35715770721435547,-0.031180381774902344,0.03586095571517944
1712257372541539300,4.237539306640625,0.09463977813720703,-0.04773712158203125,0.01879251003265381
1712257372551538200,4.2475380859375,0.0027475357055664062,-0.01943337917327881,-0.03901952505111694
1712257372561536800,4.257536865234375,0.03620719909667969,-0.0022902488708496094,-0.12152613699436188
1712257372571535600,4.26753564453125,0.07055473327636719,-0.011391639709472656,-0.06969848275184631
1712257372581534500,4.277534423828125,0.08648300170898438,-0.01013040542602539,0.022473067045211792
1712257372591533000,4.287532958984375,-0.0983438491821289,-0.0449446439743042,0.009123176336288452
1712257372601532000,4.297531982421875,-0.3552265167236328,-0.055367231369018555,-0.03770360350608826
1712257372611530500,4.307530517578125,-0.4522705078125,-0.05309855937957764,-0.11608994007110596
1712257372621529300,4.317529296875,-0.3729114532470703,-0.038286447525024414,-0.19801461696624756
1712257372631528000,4.32752783203125,-0.21769237518310547,-0.06593263149261475,-0.22926433384418488
1712257372641526800,4.33752685546875,-0.09178733825683594,-0.1424349546432495,-0.1917247772216797
1712257372651525600,4.347525634765625,-0.0619049072265625,-0.12152588367462158,-0.06686899065971375
1712257372661524200,4.357524169921875,-0.10383796691894531,-0.06743979454040527,0.021116167306900024
1712257372671523000,4.367523193359375,-0.11916542053222656,-0.012705802917480469,0.017668187618255615
1712257372681522000,4.37752197265625,-0.08854198455810547,0.03715157508850098,-0.01326015591621399
1712257372691520500,4.3875205078125,0.00017261505126953125,0.052762389183044434,0.02597448229789734
1712257372701519400,4.397519287109375,0.13266563415527344,0.009628653526306152,-0.00042942166328430176
1712257372711518200,4.407518310546875,0.09315204620361328,-0.040564775466918945,-0.06241282820701599
1712257372721516800,4.417516845703125,-0.054203033447265625,-0.059397339820861816,-0.043035417795181274
1712257372731515600,4.427515625,-0.08702468872070312,-0.030793428421020508,-0.03894597291946411
1712257372741514200,4.43751416015625,-0.0005674362182617188,0.05098915100097656,-0.004980146884918213
1712257372751513000,4.44751318359375,0.13837337493896484,0.10341596603393555,0.0010645389556884766
1712257372761512000,4.457511962890625,0.19598388671875,0.11711657047271729,0.03048846125602722
1712257372771510800,4.4675107421875,0.18680381774902344,0.0379338264465332,0.053180545568466187
1712257372781510000,4.477510009765625,0.08458137512207031,-0.01755201816558838,-0.0045662522315979
1712257372791508700,4.4875087890625,0.02098369598388672,-0.03027331829071045,-0.07946723699569702
1712257372801507800,4.4975078125,0.009965896606445312,-0.047267913818359375,-0.1151944249868393
1712257372811507000,4.5075068359375,0.04420757293701172,-0.0289762020111084,-0.11293981969356537
1712257372821505800,4.517505859375,0.044727325439453125,-0.02818918228149414,-0.0948081761598587
1712257372831505000,4.5275048828125,0.08830833435058594,-0.05340719223022461,-0.12239786982536316
1712257372841504000,4.53750390625,0.06982994079589844,-0.06791937351226807,-0.12879206240177155
1712257372851503000,4.547503173828125,0.07573509216308594,-0.032578349113464355,-0.07877896726131439
1712257372861502200,4.557502197265625,0.048523902893066406,-0.009388446807861328,-0.10380126535892487
1712257372871501000,4.5675009765625,-0.059795379638671875,-0.03138935565948486,-0.061157047748565674
1712257372881500200,4.577500244140625,-0.16080474853515625,-0.03025829792022705,-0.08050553500652313
1712257372891499300,4.587499267578125,-0.22605609893798828,0.03419065475463867,-0.027596384286880493
1712257372901498400,4.597498291015625,-0.21027755737304688,0.0773310661315918,0.0013495087623596191
1712257372911497500,4.60749755859375,-0.14929962158203125,0.034246206283569336,-0.05039989948272705
1712257372921496600,4.61749658203125,-0.12198638916015625,0.03793931007385254,-0.04837065935134888
1712257372931495700,4.62749560546875,-0.1067647933959961,0.07837831974029541,-0.04160887002944946
1712257372941494800,4.637494873046875,-0.2425384521484375,0.06930232048034668,0.004792898893356323
1712257372951494000,4.647493896484375,-0.19890975952148438,0.08720290660858154,0.07252898812294006
1712257372961493000,4.657492919921875,-0.08118820190429688,0.10603880882263184,0.0656549334526062
1712257372971492000,4.6674921875,-0.00186920166015625,0.05638682842254639,0.04054012894630432
1712257372981491200,4.6774912109375,0.058261871337890625,-0.014481663703918457,-0.02093830704689026
1712257372991490300,4.687490234375,0.14472579956054688,-0.06630146503448486,-0.06745180487632751
1712257373001489400,4.697489501953125,0.21450138092041016,-0.07074666023254395,-0.09701479971408844
1712257373011488300,4.70748828125,0.1933889389038086,-0.06867146492004395,-0.07127568125724792
1712257373021487400,4.7174873046875,0.17241573333740234,0.023394346237182617,0.02911892533302307
1712257373031486500,4.727486572265625,0.11095809936523438,0.10434281826019287,0.11332938075065613
1712257373041485600,4.737485595703125,0.04480266571044922,0.13667356967926025,0.047473400831222534
1712257373051484700,4.747484619140625,-0.03570079803466797,0.11372041702270508,0.0013825595378875732
1712257373061483800,4.75748388671875,-0.041965484619140625,0.06673955917358398,0.010354548692703247
1712257373071482600,4.767482666015625,-0.07690238952636719,0.03867661952972412,0.009257704019546509
1712257373081481500,4.7774814453125,-0.1570758819580078,0.011536955833435059,0.0004436075687408447
1712257373091480300,4.787480224609375,-0.2971229553222656,0.0323258638381958,0.018419772386550903
1712257373101479200,4.797479248046875,-0.3748893737792969,0.06269073486328125,0.035772740840911865
1712257373111478000,4.80747802734375,-0.3448953628540039,0.08845078945159912,0.001601487398147583
1712257373121476900,4.817476806640625,-0.2982206344604492,0.040677666664123535,-0.03333595395088196
1712257373131475700,4.827475830078125,-0.17038440704345703,-0.017518997192382812,-0.07070520520210266
1712257373141474300,4.837474365234375,-0.02851104736328125,-0.08559739589691162,-0.08670058846473694
1712257373151473200,4.84747314453125,0.10101318359375,-0.10597074031829834,-0.08537234365940094
1712257373161471700,4.8574716796875,0.2398519515991211,-0.08183693885803223,-0.03755122423171997
1712257373171470600,4.867470703125,0.20617103576660156,0.026731491088867188,0.015931397676467896
1712257373181469200,4.87746923828125,0.04569053649902344,0.02658867835998535,0.04248470067977905
1712257373191468000,4.887468017578125,0.09596061706542969,-0.012430906295776367,-0.049540430307388306
1712257373201467000,4.897466796875,0.08137989044189453,-0.05977821350097656,-0.15817216038703918
1712257373211465500,4.907465576171875,0.10728836059570312,-0.1155465841293335,-0.17258629202842712
1712257373221464300,4.91746435546875,0.027741432189941406,-0.09410345554351807,-0.09796908497810364
1712257373231463000,4.927462890625,-0.09718608856201172,-0.027907252311706543,-0.03493615984916687
1712257373241461800,4.937461669921875,-0.09734439849853516,0.07256495952606201,0.06646636128425598
1712257373251460600,4.947460693359375,-0.07553482055664062,0.12792766094207764,0.15760961174964905
1712257373261459200,4.957459228515625,-0.010302543640136719,0.12687194347381592,0.1087835431098938
1712257373271458000,4.9674580078125,-0.03828907012939453,0.03405272960662842,-0.0008575022220611572
1712257373281457000,4.977456787109375,-0.04726886749267578,-0.03197002410888672,-0.0769268125295639
1712257373291455500,4.98745556640625,-0.015669822692871094,-0.07099270820617676,-0.07583652436733246
1712257373301454300,4.997454345703125,0.032570838928222656,-0.051780104637145996,-0.11087854206562042
1712257373311453200,5.007453125,0.04007434844970703,-0.03734564781188965,-0.10653859376907349
1712257373321451800,5.01745166015625,0.05483436584472656,-0.04260849952697754,-0.02975684404373169
1712257373331450600,5.02745068359375,0.06487274169921875,-0.04332315921783447,-0.04725217819213867
1712257373341449200,5.03744921875,0.07956695556640625,0.02609860897064209,-0.037774428725242615
1712257373351448000,5.047447998046875,0.0750722885131836,0.028525471687316895,-0.06326733529567719
1712257373361447000,5.057447021484375,0.029865264892578125,-0.005119442939758301,-0.03713488578796387
1712257373371445500,5.067445556640625,0.05170726776123047,-0.00048065185546875,-0.042238205671310425
1712257373381444400,5.0774443359375,0.11677265167236328,0.005971789360046387,-0.04356279969215393
1712257373391443200,5.087443115234375,0.19871902465820312,-0.007224917411804199,-0.08210083842277527
1712257373401441800,5.09744189453125,0.07247352600097656,-0.009167909622192383,-0.01014050841331482
1712257373411440600,5.107440673828125,-0.0009021759033203125,0.04514491558074951,0.016729116439819336
1712257373421439200,5.117439208984375,-0.12419700622558594,0.06865859031677246,0.10305976867675781
1712257373431438000,5.12743798828125,-0.21117591857910156,0.1621185541152954,0.17455673217773438
1712257373441437000,5.13743701171875,-0.17780590057373047,0.12771737575531006,0.21048444509506226
1712257373451435500,5.147435546875,-0.15399456024169922,0.1413257122039795,0.12114927172660828
1712257373461434400,5.157434326171875,-0.10675811767578125,0.12429046630859375,0.10501891374588013
1712257373471433200,5.16743310546875,-0.06008625030517578,0.08644890785217285,0.05650216341018677
1712257373481431800,5.177431884765625,-0.12067794799804688,-0.010652422904968262,-0.014544367790222168
1712257373491430700,5.1874306640625,-0.15068340301513672,-0.028619885444641113,-0.03622990846633911
1712257373501429200,5.19742919921875,-0.1498880386352539,-0.0019303560256958008,-0.017718404531478882
1712257373511428000,5.207427978515625,-0.1615009307861328,0.06997442245483398,0.05343949794769287
1712257373521426700,5.2174267578125,-0.15146255493164062,0.14622724056243896,0.05904147028923035
1712257373531425500,5.227425537109375,-0.19163227081298828,0.1909416913986206,0.05520576238632202
1712257373541424000,5.237424072265625,-0.21261310577392578,0.18285608291625977,0.07484093308448792
1712257373551423000,5.247423095703125,-0.18323612213134766,0.1530088186264038,0.035672008991241455
1712257373561421600,5.257421630859375,-0.1298971176147461,0.14240872859954834,0.045558661222457886
1712257373571420400,5.26742041015625,-0.08615970611572266,0.10569524765014648,0.10047894716262817
1712257373581419000,5.2774189453125,-0.05694293975830078,0.11767172813415527,0.1462751030921936
1712257373591417900,5.28741796875,-0.1214752197265625,0.1290113925933838,0.09600663185119629
1712257373601416700,5.297416748046875,-0.14328956604003906,0.08709251880645752,-0.00023555755615234375
1712257373611415300,5.307415283203125,-0.033593177795410156,0.02218151092529297,-0.11304420232772827
1712257373621414100,5.3174140625,0.06419754028320312,-0.06667232513427734,-0.1443059742450714
1712257373631412700,5.327412841796875,0.13832759857177734,-0.12078070640563965,-0.12542414665222168
1712257373641411600,5.33741162109375,0.12433910369873047,-0.09601092338562012,-0.0714108943939209
1712257373651410200,5.34741015625,0.05576896667480469,-0.041079163551330566,0.03679996728897095
1712257373661409000,5.357408935546875,0.013398170471191406,0.024116039276123047,0.05453631281852722
1712257373671407900,5.367407958984375,0.02846813201904297,0.010513901710510254,0.05272316932678223
1712257373681406500,5.377406494140625,0.026762008666992188,-0.005167722702026367,0.01358070969581604
1712257373691405300,5.3874052734375,0.036934852600097656,-0.00812685489654541,-0.02212369441986084
1712257373701404200,5.397404052734375,0.12374019622802734,0.005623221397399902,-0.04363162815570831
1712257373711403000,5.407403076171875,0.17959976196289062,0.030419111251831055,0.0158902108669281
1712257373721401600,5.417401611328125,0.17602062225341797,0.05322277545928955,0.06877294182777405
1712257373731400400,5.427400390625,0.06331348419189453,0.07342827320098877,0.16654089093208313
1712257373741399000,5.43739892578125,-0.07281970977783203,0.08839166164398193,0.08788684010505676
1712257373751398000,5.44739794921875,-0.2590970993041992,0.10014879703521729,-0.00388982892036438
1712257373761396500,5.457396484375,-0.4001045227050781,0.04598808288574219,-0.041798800230026245
1712257373771395300,5.467395263671875,-0.3626222610473633,-0.0029268264770507812,-0.06188800930976868
1712257373781394200,5.477394287109375,-0.27097606658935547,0.02239203453063965,-0.036250144243240356
1712257373791392800,5.487392822265625,-0.15370464324951172,0.05157732963562012,0.03686302900314331
1712257373801391600,5.4973916015625,-0.11815929412841797,0.08949804306030273,0.07729029655456543
1712257373811390500,5.507390380859375,-0.11135387420654297,0.13445806503295898,0.1403980851173401
1712257373821389000,5.51738916015625,-0.07323169708251953,0.17107892036437988,0.13243785500526428
1712257373831388000,5.527387939453125,0.010618209838867188,0.18736803531646729,0.10489159822463989
1712257373841386800,5.53738671875,0.04202747344970703,0.14512038230895996,0.09545499086380005
1712257373851385600,5.547385498046875,0.008980751037597656,0.08029747009277344,0.02634251117706299
1712257373861384400,5.557384521484375,-0.03827667236328125,0.02413928508758545,-0.01352640986442566
1712257373871383300,5.56738330078125,-0.01614665985107422,0.028118133544921875,-0.05829209089279175
1712257373881382100,5.577382080078125,0.036914825439453125,0.04283261299133301,-0.04875606298446655
1712257373891381200,5.58738134765625,0.10660743713378906,0.0704108476638794,-0.004486501216888428
1712257373901380000,5.597380126953125,0.0661172866821289,0.06946110725402832,0.03279191255569458
1712257373911379200,5.607379150390625,-0.07726669311523438,0.10144591331481934,0.08602401614189148
1712257373921378300,5.61737841796875,-0.19905471801757812,0.12559247016906738,0.10089755058288574
1712257373931377200,5.627377197265625,-0.1820068359375,0.13786101341247559,0.08275514841079712
1712257373941376300,5.637376220703125,-0.10047626495361328,0.117653489112854,0.03958055377006531
1712257373951375400,5.647375244140625,-0.009366035461425781,0.06658411026000977,0.023548543453216553
1712257373961374500,5.65737451171875,0.04776477813720703,-0.015234827995300293,-0.019737690687179565
1712257373971373600,5.66737353515625,0.0733489990234375,-0.06150698661804199,-0.05203986167907715
1712257373981372400,5.677372314453125,0.05299854278564453,-0.050664424896240234,-0.06103628873825073
1712257373991371500,5.68737158203125,-0.046668052673339844,-0.0648874044418335,-0.06575608253479004
1712257374001370600,5.69737060546875,-0.10364627838134766,-0.03909468650817871,-0.0871189683675766
1712257374011369700,5.70736962890625,-0.12290382385253906,-0.010416626930236816,-0.06449557840824127
1712257374021368800,5.717368896484375,-0.10173320770263672,-0.021056175231933594,-0.07511784136295319
1712257374031367700,5.72736767578125,-0.10706615447998047,-0.002066373825073242,-0.02843838930130005
1712257374041366800,5.73736669921875,-0.1242055892944336,0.01866006851196289,-0.030804067850112915
1712257374051366000,5.747365966796875,-0.11937236785888672,0.04691338539123535,0.023392200469970703
1712257374061365000,5.757364990234375,-0.0732736587524414,0.053408026695251465,0.08046162128448486
1712257374071364000,5.767364013671875,-0.03156757354736328,0.07263445854187012,0.11107808351516724
1712257374081363200,5.77736328125,-0.1285848617553711,0.050510406494140625,0.04064679145812988
1712257374091362000,5.787362060546875,-0.1803436279296875,0.0028586387634277344,-0.024898290634155273
1712257374101361200,5.797361083984375,-0.13683223724365234,-0.020947933197021484,-0.06239771842956543
1712257374111360300,5.8073603515625,0.030673980712890625,-0.013377547264099121,0.01715749502182007
1712257374121359400,5.817359375,0.15731430053710938,0.04570460319519043,0.1230272650718689
1712257374131358200,5.827358154296875,0.16920852661132812,0.07544529438018799,0.21032065153121948
1712257374141357300,5.837357421875,0.08088111877441406,0.08687710762023926,0.09301212430000305
1712257374151356400,5.8473564453125,-0.007254600524902344,0.04918956756591797,-0.03950884938240051
1712257374161355300,5.857355224609375,0.002773284912109375,-0.005627274513244629,-0.07163375616073608
1712257374171354000,5.86735400390625,0.0438079833984375,-0.04061484336853027,-0.04665631055831909
1712257374181353000,5.87735302734375,0.029709815979003906,-0.02008342742919922,0.015963345766067505
1712257374191351800,5.887351806640625,-0.0704050064086914,0.018709778785705566,0.10721936821937561
1712257374201350700,5.8973505859375,-0.13921737670898438,0.08296167850494385,0.10501456260681152
1712257374211349500,5.907349609375,-0.11932945251464844,0.10846209526062012,0.07096022367477417
1712257374221348000,5.91734814453125,-0.08274078369140625,0.06963133811950684,0.027325958013534546
1712257374231347000,5.927346923828125,-0.0008363723754882812,0.022026777267456055,0.029718488454818726
1712257374241345500,5.937345458984375,0.09767913818359375,-0.027115702629089355,0.05550965666770935
1712257374251344400,5.947344482421875,0.09807109832763672,-0.06435239315032959,-0.012823671102523804
1712257374261343000,5.957343017578125,0.04095268249511719,-0.09202754497528076,-0.03420358896255493
1712257374271341600,5.967341552734375,-0.018686294555664062,-0.04030895233154297,-0.0015154480934143066
1712257374281340400,5.97734033203125,-0.08801937103271484,-0.009684324264526367,0.024776488542556763
1712257374291339300,5.98733935546875,-0.02820873260498047,0.062433719635009766,0.08432796597480774
1712257374301337900,5.997337890625,-0.0066738128662109375,0.11085379123687744,0.07939940690994263
1712257374311336700,6.007336669921875,-0.06401538848876953,0.08179450035095215,0.051516830921173096
1712257374321335300,6.017335205078125,-0.07564544677734375,0.04675567150115967,0.02407747507095337
1712257374331334100,6.027334228515625,-0.04405403137207031,0.013584613800048828,-0.05423218011856079
1712257374341333000,6.0373330078125,-0.005192756652832031,-0.0031964778900146484,-0.04190707206726074
1712257374351331600,6.04733154296875,0.012247085571289062,-0.008602619171142578,-0.0034143924713134766
1712257374361330400,6.057330322265625,0.0034122467041015625,-0.019086480140686035,-0.01293209195137024
1712257374371329000,6.0673291015625,-0.046334266662597656,-0.011929631233215332,-0.05739954113960266
1712257374381328000,6.077327880859375,-0.08432865142822266,0.012676239013671875,-0.08294340968132019
1712257374391326700,6.08732666015625,-0.04594993591308594,-0.01218724250793457,-0.08947545289993286
1712257374401325300,6.0973251953125,-0.02703571319580078,-0.0213315486907959,-0.07336211204528809
1712257374411324200,6.10732421875,0.001194000244140625,-0.04108905792236328,-0.038281142711639404
1712257374421322800,6.11732275390625,0.0940704345703125,-0.03186476230621338,-0.03326636552810669
1712257374431321600,6.127321533203125,0.033896446228027344,-0.042505741119384766,-0.05095401406288147
1712257374441320400,6.137320556640625,0.0050144195556640625,-0.0660635232925415,-0.06086677312850952
1712257374451319300,6.1473193359375,-0.0885305404663086,-0.08017420768737793,-0.07430997490882874
1712257374461318000,6.15731787109375,-0.10323429107666016,-0.06962466239929199,-0.010341942310333252
1712257374471316700,6.167316650390625,-0.06781768798828125,-0.02212655544281006,0.026042431592941284
1712257374481315300,6.1773154296875,-0.027573585510253906,0.030322670936584473,0.05081373453140259
1712257374491314200,6.187314208984375,-0.01581096649169922,0.024341344833374023,0.028425872325897217
1712257374501313000,6.19731298828125,-0.07569217681884766,-0.01865553855895996,-0.04809030890464783
1712257374511311600,6.2073115234375,-0.0877065658569336,-0.08809924125671387,-0.12578274309635162
1712257374521310500,6.217310546875,-0.042487144470214844,-0.10625040531158447,-0.13323722779750824
1712257374531309000,6.22730908203125,0.03365325927734375,-0.11373257637023926,-0.07873275876045227
1712257374541308000,6.237307861328125,0.056980133056640625,-0.06779289245605469,-0.053166866302490234
1712257374551306800,6.247306640625,-0.003467559814453125,-0.05321848392486572,-0.017354965209960938
1712257374561305600,6.2573056640625,-0.0830698013305664,-0.038782358169555664,0.02410656213760376
1712257374571304200,6.26730419921875,-0.1315927505493164,0.011849403381347656,0.09407675266265869
1712257374581303000,6.277302978515625,-0.07461833953857422,0.04537034034729004,0.14011991024017334
1712257374591301600,6.287301513671875,-0.06539535522460938,0.0714336633682251,0.11911597847938538
1712257374601300500,6.297300537109375,-0.0799398422241211,0.06566274166107178,0.07306796312332153
1712257374611299300,6.30729931640625,-0.046344757080078125,0.022763967514038086,0.014596611261367798
1712257374621298000,6.3172978515625,-0.053397178649902344,-0.022925972938537598,-0.04789310693740845
1712257374631296500,6.327296630859375,-0.024567604064941406,-0.0399785041809082,-0.07787021994590759
1712257374641295400,6.33729541015625,-0.06047534942626953,-0.04236495494842529,-0.08765365183353424
1712257374651294000,6.3472939453125,-0.08449459075927734,-0.0302274227142334,-0.033712953329086304
1712257374661292800,6.357292724609375,-0.043979644775390625,0.006307482719421387,0.001766592264175415
1712257374671291400,6.36729150390625,0.04432964324951172,0.0554509162902832,0.03144317865371704
1712257374681290200,6.377290283203125,0.11596965789794922,0.06850850582122803,0.04512631893157959
1712257374691288800,6.387288818359375,0.1088857650756836,0.06836199760437012,0.12922930717468262
1712257374701287700,6.39728759765625,0.04227161407470703,0.049970030784606934,0.10457289218902588
1712257374711286300,6.407286376953125,0.016442298889160156,0.07656586170196533,0.04212793707847595
1712257374721285000,6.41728515625,0.007343292236328125,0.08873343467712402,0.057548969984054565
1712257374731284000,6.427283935546875,0.053336143493652344,0.07445991039276123,0.01299196481704712
1712257374741282600,6.437282470703125,0.06824970245361328,0.02650320529937744,-0.034311890602111816
1712257374751281400,6.447281494140625,0.12386798858642578,-0.0407567024230957,-0.07597842812538147
1712257374761280000,6.457280029296875,0.06441402435302734,-0.0812687873840332,-0.07990846037864685
1712257374771278800,6.46727880859375,-0.00009918212890625,-0.1063847541809082,-0.03156471252441406
1712257374781277700,6.477277587890625,-0.03387928009033203,-0.07449054718017578,0.019445955753326416
1712257374791276300,6.4872763671875,-0.04890918731689453,0.019453763961791992,0.0648660957813263
1712257374801275100,6.497275146484375,-0.049538612365722656,0.07039999961853027,0.06086680293083191
1712257374811274000,6.50727392578125,-0.09292411804199219,0.05759704113006592,0.026834458112716675
1712257374821272600,6.5172724609375,-0.0496673583984375,-0.00048410892486572266,-0.06527778506278992
1712257374831271400,6.527271484375,-0.0635538101196289,-0.07700300216674805,-0.13550861179828644
1712257374841270300,6.537270263671875,-0.087005615234375,-0.14187490940093994,-0.09649434685707092
1712257374851268900,6.547268798828125,-0.09637165069580078,-0.13360774517059326,-0.056781619787216187
1712257374861267700,6.557267822265625,-0.1349802017211914,-0.07270658016204834,-0.02769342064857483
1712257374871266300,6.567266357421875,-0.13572120666503906,-0.007375001907348633,-0.0021879971027374268
1712257374881265200,6.57726513671875,-0.11986923217773438,0.032538533210754395,0.03021380305290222
1712257374891264000,6.587263916015625,-0.053684234619140625,0.0292435884475708,0.025858819484710693
1712257374901262600,6.5972626953125,0.015047073364257812,-0.020130157470703125,-0.03946596384048462
1712257374911261400,6.607261474609375,0.021744728088378906,-0.0776681900024414,-0.07919293642044067
1712257374921260000,6.617260009765625,0.0021991729736328125,-0.11650466918945312,-0.07597790658473969
1712257374931259000,6.6272587890625,-0.005305290222167969,-0.11261427402496338,-0.07261887192726135
1712257374941257700,6.6372578125,-0.01997661590576172,-0.09926044940948486,-0.0523715615272522
1712257374951256600,6.647256591796875,-0.051545143127441406,-0.03740036487579346,-0.002802342176437378
1712257374961255400,6.65725537109375,-0.06644821166992188,0.044112324714660645,0.003561049699783325
1712257374971254300,6.667254150390625,-0.030986785888671875,0.07736706733703613,0.06705242395401001
1712257374981253000,6.677253173828125,0.016712188720703125,0.08088600635528564,0.06364867091178894
1712257374991252000,6.687251953125,0.02408599853515625,0.046715378761291504,0.09515741467475891
1712257375001250800,6.697250732421875,-0.03765678405761719,0.04936182498931885,0.09227827191352844
1712257375011249700,6.707249755859375,-0.07283210754394531,0.02455294132232666,0.06273242831230164
1712257375021248500,6.71724853515625,-0.05529975891113281,0.023699522018432617,0.08486652374267578
1712257375031247400,6.727247314453125,-0.009032249450683594,0.054163575172424316,0.0866442620754242
1712257375041246500,6.73724658203125,0.013357162475585938,0.05817413330078125,0.12326282262802124
1712257375051245300,6.747245361328125,0.04067516326904297,0.07361233234405518,0.13991117477416992
1712257375061244200,6.757244140625,0.015488624572753906,0.07151281833648682,0.13719218969345093
1712257375071243000,6.767242919921875,-0.031105995178222656,0.08782148361206055,0.09651494026184082
1712257375081241900,6.777241943359375,-0.11121845245361328,0.06564486026763916,0.0832662284374237
1712257375091240700,6.78724072265625,-0.12683391571044922,0.034477829933166504,0.001661926507949829
1712257375101239600,6.797239501953125,-0.06861305236816406,0.05048167705535889,-0.023387610912322998
1712257375111238400,6.80723828125,-0.056026458740234375,0.04799389839172363,-0.026530861854553223
1712257375121237200,6.8172373046875,-0.043426513671875,0.03563129901885986,-0.06676116585731506
1712257375131236000,6.827236083984375,0.005188941955566406,0.03212141990661621,-0.034011006355285645
1712257375141235000,6.83723486328125,0.04438304901123047,-0.010406970977783203,-0.03752833604812622
1712257375151233800,6.84723388671875,0.04036235809326172,-0.035689711570739746,-0.0811532735824585
1712257375161232600,6.857232666015625,0.04798126220703125,-0.05492591857910156,-0.11788761615753174
1712257375171231500,6.8672314453125,0.02875041961669922,-0.10078370571136475,-0.14755137264728546
1712257375181230300,6.877230224609375,0.04001045227050781,-0.10794663429260254,-0.1655236780643463
1712257375191229200,6.887229248046875,0.09865474700927734,-0.09126055240631104,-0.12245997786521912
1712257375201228000,6.89722802734375,0.08528804779052734,-0.07595562934875488,-0.09645518660545349
1712257375211227000,6.907226806640625,0.014574050903320312,-0.05399620532989502,-0.058522194623947144
1712257375221225700,6.917225830078125,-0.053490638732910156,-0.03096914291381836,-0.036895751953125
1712257375231224600,6.927224609375,-0.12841129302978516,-0.03098154067993164,-0.0447404682636261
1712257375241223400,6.937223388671875,-0.14330482482910156,-0.05322122573852539,-0.07501804828643799
1712257375251222300,6.94722216796875,-0.0743875503540039,-0.06572341918945312,-0.0370500385761261
1712257375261220900,6.957220947265625,-0.07735824584960938,-0.048935770988464355,-0.04369461536407471
1712257375271219700,6.9672197265625,-0.05403423309326172,-0.05590319633483887,-0.023714125156402588
1712257375281218300,6.97721826171875,-0.06917095184326172,-0.050203800201416016,-0.024807631969451904
1712257375291217200,6.987217041015625,-0.041289329528808594,-0.03449654579162598,-0.011608600616455078
1712257375301215700,6.9972158203125,-0.0038385391235351562,-0.018592119216918945,-0.04241040349006653
1712257375311214600,7.007214599609375,0.024217605590820312,-0.02745652198791504,-0.04265314340591431
1712257375321213200,7.017213134765625,0.011805534362792969,-0.03497350215911865,0.011218726634979248
1712257375331212000,7.0272119140625,-0.055393218994140625,0.03529465198516846,0.11169922351837158
1712257375341210600,7.037210693359375,-0.08382892608642578,0.12269997596740723,0.15273600816726685
1712257375351209500,7.04720947265625,-0.1045541763305664,0.15510296821594238,0.27049556374549866
1712257375361208300,7.057208251953125,-0.09843921661376953,0.14967095851898193,0.2671847641468048
1712257375371207000,7.06720703125,-0.11850357055664062,0.12696611881256104,0.22894933819770813
1712257375381205800,7.077205810546875,-0.07396793365478516,0.09264540672302246,0.14969787001609802
1712257375391204600,7.08720458984375,-0.034450531005859375,0.059465885162353516,0.0972345769405365
1712257375401203200,7.097203125,0.0048274993896484375,0.005799531936645508,0.053068310022354126
1712257375411202000,7.1072021484375,0.07497978210449219,0.0035238265991210938,-0.045119017362594604
1712257375421200600,7.11720068359375,0.0755758285522461,-0.03688502311706543,-0.08818930387496948
1712257375431199500,7.127199462890625,0.023342132568359375,-0.04825294017791748,-0.0688585638999939
1712257375441198300,7.1371982421875,0.021236419677734375,-0.032964229583740234,-0.08069464564323425
1712257375451197000,7.147197021484375,0.03096294403076172,-0.012322187423706055,-0.05113840103149414
1712257375461195800,7.15719580078125,0.026152610778808594,0.04020035266876221,0.043605029582977295
1712257375471194600,7.167194580078125,0.009450912475585938,0.09249591827392578,0.09914961457252502
1712257375481193200,7.177193115234375,-0.04763984680175781,0.11456501483917236,0.08001762628555298
1712257375491192000,7.187192138671875,-0.0948648452758789,0.0753856897354126,0.022326409816741943
1712257375501191000,7.19719091796875,-0.10135650634765625,0.00013256072998046875,-0.030472636222839355
1712257375511189500,7.207189453125,-0.15837669372558594,-0.07632339000701904,-0.09976255893707275
1712257375521188400,7.217188232421875,-0.13922977447509766,-0.12210750579833984,-0.11000168323516846
1712257375531187000,7.22718701171875,-0.09670352935791016,-0.0934147834777832,-0.12175481021404266
1712257375541185800,7.237185791015625,-0.03293132781982422,-0.09206283092498779,-0.07773342728614807
1712257375551184600,7.2471845703125,0.004393577575683594,-0.06374430656433105,-0.08670401573181152
1712257375561183200,7.257183349609375,0.029824256896972656,-0.055023193359375,-0.11206190288066864
1712257375571182000,7.26718212890625,0.03870105743408203,-0.08095431327819824,-0.10331316292285919
1712257375581181000,7.277180908203125,0.07874488830566406,-0.11671662330627441,-0.08465513586997986
1712257375591179500,7.287179443359375,0.0539398193359375,-0.06769216060638428,-0.008251309394836426
1712257375601178400,7.297178466796875,-0.016393661499023438,-0.03988373279571533,-0.028276115655899048
1712257375611177200,7.30717724609375,-0.01967334747314453,-0.014617323875427246,-0.08615641295909882
1712257375621175800,7.31717578125,-0.013222694396972656,-0.03322958946228027,-0.11033032834529877
1712257375631174700,7.327174560546875,-0.07848358154296875,-0.04754900932312012,-0.03925663232803345
1712257375641173200,7.33717333984375,-0.07176971435546875,-0.028872013092041016,0.020996540784835815
1712257375651172000,7.347172119140625,-0.04323768615722656,0.003190159797668457,0.06458520889282227
1712257375661170700,7.357170654296875,-0.014478683471679688,0.0224759578704834,0.09167423844337463
1712257375671169500,7.36716943359375,-0.052628517150878906,0.03164172172546387,0.08696815371513367
1712257375681168100,7.377168212890625,-0.07889270782470703,0.019549131393432617,0.04237323999404907
1712257375691167000,7.3871669921875,0.0000019073486328125,-0.006081581115722656,0.00336611270904541
1712257375701165600,7.39716552734375,0.10024261474609375,-0.013882875442504883,-0.02620220184326172
1712257375711164400,7.407164306640625,0.1620798110961914,-0.016495823860168457,0.01413068175315857
1712257375721163000,7.4171630859375,0.11411857604980469,-0.003927469253540039,0.017686903476715088
1712257375731161900,7.427161865234375,0.02804088592529297,0.02905583381652832,0.041295021772384644
1712257375741160400,7.437160400390625,-0.024344444274902344,0.056378960609436035,0.04568469524383545
1712257375751159300,7.4471591796875,-0.07903575897216797,0.07142972946166992,0.051636964082717896
1712257375761158000,7.457157958984375,-0.06656169891357422,0.06204116344451904,0.06877937912940979
1712257375771156700,7.46715673828125,-0.08745574951171875,0.06392228603363037,0.06634783744812012
1712257375781155600,7.477155517578125,-0.08182621002197266,0.055478453636169434,0.04608047008514404
1712257375791154200,7.487154296875,-0.08326339721679688,-0.010988593101501465,0.004218727350234985
1712257375801153000,7.497153076171875,-0.13277912139892578,-0.04074108600616455,-0.024620145559310913
1712257375811152000,7.50715185546875,-0.10123252868652344,-0.054563045501708984,-0.0309445858001709
1712257375821150500,7.517150390625,-0.036556243896484375,-0.03533518314361572,-0.0490020215511322
1712257375831149300,7.5271494140625,0.023123741149902344,-0.046350955963134766,-0.07087603211402893
1712257375841148000,7.53714794921875,0.039498329162597656,-0.027761101722717285,0.013560682535171509
1712257375851146800,7.547146728515625,0.05593109130859375,0.0074918270111083984,0.037076205015182495
1712257375861145600,7.5571455078125,0.02467632293701172,0.02501821517944336,-0.0018665194511413574
1712257375871144200,7.567144287109375,0.007938385009765625,0.036846041679382324,-0.0016859769821166992
1712257375881143000,7.57714306640625,-0.04208660125732422,0.04740726947784424,0.010936558246612549
1712257375891142000,7.587141845703125,-0.08470439910888672,0.03534817695617676,0.047199636697769165
1712257375901140500,7.597140380859375,-0.06978607177734375,0.04463553428649902,0.039446115493774414
1712257375911139300,7.607139404296875,0.0050563812255859375,0.015474081039428711,0.013822942972183228
1712257375921138000,7.617137939453125,-0.011261940002441406,0.011235475540161133,-0.05048930644989014
1712257375931136800,7.62713671875,-0.05162239074707031,-0.023941993713378906,-0.014934748411178589
1712257375941135600,7.637135498046875,-0.051319122314453125,-0.039905667304992676,-0.05521693825721741
1712257375951134200,7.64713427734375,-0.03923511505126953,-0.007132887840270996,-0.04462340474128723
1712257375961133000,7.657133056640625,-0.06798458099365234,0.03580069541931152,-0.036054760217666626
1712257375971132000,7.6671318359375,-0.060797691345214844,0.01626908779144287,0.01861673593521118
1712257375981130500,7.677130615234375,0.02304840087890625,0.020647764205932617,0.021995216608047485
1712257375991129300,7.68712939453125,0.042290687561035156,-0.0037058591842651367,0.024243563413619995
1712257376001128200,7.697128173828125,0.07106399536132812,-0.0325169563293457,0.018703758716583252
1712257376011127300,7.707127197265625,0.05679607391357422,-0.08790397644042969,-0.04451969265937805
1712257376021126100,7.717126220703125,0.015979766845703125,-0.1209186315536499,-0.07526257634162903
1712257376031125200,7.727125244140625,-0.0036516189575195312,-0.10927653312683105,-0.118902787566185
1712257376041124000,7.7371240234375,-0.05707359313964844,-0.09416568279266357,-0.06514310836791992
1712257376051123200,7.747123291015625,-0.11307334899902344,-0.049584388732910156,-0.027001112699508667
1712257376061122300,7.757122314453125,-0.1355905532836914,-0.004750847816467285,0.0012872517108917236
1712257376071121200,7.76712109375,-0.11002922058105469,0.0538177490234375,0.08271995186805725
1712257376081120300,7.777120361328125,-0.019262313842773438,0.05270111560821533,0.15107882022857666
1712257376091119400,7.787119384765625,0.012071609497070312,0.026016592979431152,0.09912616014480591
1712257376101118500,7.797118408203125,-0.049777984619140625,-0.018404126167297363,-0.019813328981399536
1712257376111117600,7.80711767578125,-0.12373161315917969,-0.055472612380981445,-0.09997765719890594
1712257376121116400,7.817116455078125,-0.0805349349975586,-0.06813526153564453,-0.10373590886592865
1712257376131115500,7.827115478515625,0.024575233459472656,-0.01199197769165039,-0.007260918617248535
1712257376141114600,7.837114501953125,0.06750965118408203,0.09200429916381836,0.14236733317375183
1712257376151113700,7.84711376953125,0.02708148956298828,0.11750209331512451,0.18474099040031433
1712257376161112600,7.857112548828125,-0.06102752685546875,0.13711917400360107,0.12217479944229126
1712257376171111700,7.867111572265625,-0.10371112823486328,0.10176944732666016,0.09441190958023071
1712257376181110800,7.87711083984375,-0.06504249572753906,0.049979329109191895,-0.0007148087024688721
1712257376191110000,7.88710986328125,0.016706466674804688,-0.03755307197570801,-0.07946786284446716
1712257376201109000,7.89710888671875,0.06491279602050781,-0.10348808765411377,-0.13392770290374756
1712257376211108000,7.907108154296875,0.04604339599609375,-0.10715436935424805,-0.1419798731803894
1712257376221107000,7.91710693359375,0.01485443115234375,-0.07367873191833496,-0.14957258105278015
1712257376231106000,7.92710595703125,-0.02384662628173828,-0.07005870342254639,-0.11911758780479431
1712257376241105200,7.937105224609375,0.025719642639160156,-0.029042482376098633,-0.0710722804069519
1712257376251104300,7.947104248046875,0.053687095642089844,-0.023479580879211426,0.01902899146080017
1712257376261103000,7.95710302734375,0.05549907684326172,0.03177225589752197,0.0689990222454071
1712257376271102200,7.967102294921875,0.02898406982421875,0.05411708354949951,0.03127822279930115
1712257376281101300,7.977101318359375,-0.0282135009765625,0.04796898365020752,0.02181735634803772
1712257376291100400,7.987100341796875,-0.09239864349365234,0.004999518394470215,0.007102161645889282
1712257376301099300,7.997099365234375,-0.17586708068847656,0.00099945068359375,-0.0004792213439941406
