time,seconds_elapsed,z,y,x
1712257093852227000,0.08422705078125,0,0,0
1712257093862227200,0.094227294921875,-0.025351524353027344,-0.02134227752685547,-0.030558407306671143
1712257093872228000,0.10422802734375,-0.03846454620361328,-0.044805049896240234,-0.053935468196868896
1712257093882229500,0.1142294921875,0.0039920806884765625,-0.04558992385864258,-0.04266202449798584
1712257093892232000,0.12423193359375,0.1457061767578125,-0.015072822570800781,-0.03387078642845154
1712257093902235400,0.1342353515625,0.1909008026123047,-0.027747154235839844,0.038173526525497437
1712257093912240000,0.144240234375,0.12072944641113281,-0.01584339141845703,-0.002637803554534912
1712257093922246000,0.154245849609375,0.07024002075195312,-0.009992599487304688,-0.09675741195678711
1712257093932252700,0.164252685546875,0.047580718994140625,-0.05579185485839844,-0.09067332744598389
1712257093942260700,0.1742607421875,0.1268939971923828,-0.04602956771850586,-0.04652783274650574
1712257093952269800,0.184269775390625,0.1527547836303711,-0.02530193328857422,-0.1027769148349762
1712257093962279700,0.19427978515625,0.17826271057128906,-0.01629161834716797,-0.19192545115947723
1712257093972290600,0.20429052734375,0.1949605941772461,-0.022796154022216797,-0.18492987751960754
1712257093982301700,0.2143017578125,0.15453433990478516,-0.04377889633178711,-0.15408775210380554
1712257093992313300,0.224313232421875,0.08681869506835938,-0.05568981170654297,-0.06468088924884796
1712257094002325000,0.234324951171875,0.05548858642578125,-0.04527997970581055,0.07075303792953491
1712257094012335900,0.2443359375,-0.009626388549804688,0.000012874603271484375,0.11179998517036438
1712257094022342700,0.2543427734375,-0.12112808227539062,0.04781770706176758,0.024363011121749878
1712257094032349400,0.264349365234375,-0.18231868743896484,0.03543519973754883,-0.039469510316848755
1712257094042356200,0.274356201171875,-0.2280893325805664,-0.024643421173095703,-0.0808098167181015
1712257094052363000,0.284363037109375,-0.21393489837646484,-0.03886127471923828,-0.14635910093784332
1712257094062369800,0.294369873046875,-0.18807315826416016,-0.036972999572753906,-0.13492558896541595
1712257094072376600,0.30437646484375,-0.0863494873046875,-0.034137725830078125,-0.13387034833431244
1712257094082383400,0.31438330078125,0.10292816162109375,-0.036337852478027344,-0.12106998264789581
1712257094092390100,0.32439013671875,0.21225452423095703,-0.03611564636230469,-0.05806069076061249
1712257094102397000,0.33439697265625,0.15753841400146484,-0.06119585037231445,0.07723605632781982
1712257094112403700,0.34440380859375,0.008501052856445312,-0.035462379455566406,0.12753024697303772
1712257094122410500,0.354410400390625,-0.07095909118652344,0.008509159088134766,0.0906403660774231
1712257094132417300,0.364417236328125,-0.07405853271484375,0.037755489349365234,0.07719433307647705
1712257094142423800,0.374423828125,-0.095794677734375,0.07116985321044922,0.03411617875099182
1712257094152430600,0.3844306640625,-0.11255455017089844,0.08116817474365234,-0.03355981409549713
1712257094162437400,0.394437255859375,-0.02725505828857422,0.05486297607421875,-0.08739671111106873
1712257094172444200,0.404444091796875,0.1065053939819336,-0.0030655860900878906,-0.09348829090595245
1712257094182451000,0.414450927734375,0.14373302459716797,-0.04131937026977539,-0.08005675673484802
1712257094192457700,0.424457763671875,0.1804828643798828,-0.03772926330566406,-0.09878738224506378
1712257094202464500,0.434464599609375,0.23110675811767578,-0.05928540229797363,-0.005343139171600342
1712257094212471300,0.44447119140625,0.3047924041748047,-0.03585529327392578,0.09042730927467346
1712257094222478000,0.45447802734375,0.24273109436035156,0.026166439056396484,0.11989524960517883
1712257094232484900,0.46448486328125,0.024379730224609375,0.06194591522216797,0.10739952325820923
1712257094242491600,0.47449169921875,-0.1981039047241211,0.06472444534301758,0.13837969303131104
1712257094252498400,0.48449853515625,-0.39757728576660156,0.05081462860107422,0.15214326977729797
1712257094262505200,0.494505126953125,-0.5192470550537109,0.035839080810546875,0.06852996349334717
1712257094272512000,0.504511962890625,-0.49505138397216797,0.024965286254882812,0.0374397337436676
1712257094282518800,0.514518798828125,-0.36067867279052734,0.00796651840209961,0.11379241943359375
1712257094292525600,0.524525634765625,-0.14576053619384766,0.0020012855529785156,0.21132740378379822
1712257094302532400,0.534532470703125,-0.005620002746582031,0.01440572738647461,0.22725990414619446
1712257094312539100,0.5445390625,0.028954505920410156,0.02548694610595703,0.18094810843467712
1712257094322546000,0.5545458984375,-0.011646270751953125,0.053957462310791016,0.06442731618881226
1712257094332552400,0.564552490234375,-0.03717041015625,0.04867362976074219,-0.059520646929740906
1712257094342559200,0.574559326171875,-0.04334449768066406,-0.022325754165649414,-0.10169404745101929
1712257094352566000,0.58456591796875,-0.01652812957763672,-0.035650014877319336,-0.09624601900577545
1712257094362572800,0.59457275390625,-0.02786540985107422,-0.03921818733215332,-0.024869859218597412
1712257094372579600,0.60457958984375,0.04073047637939453,-0.014269590377807617,0.08328860998153687
1712257094382586400,0.61458642578125,0.15517711639404297,0.019306421279907227,0.13397613167762756
1712257094392593200,0.62459326171875,0.20231056213378906,0.04631996154785156,0.08589625358581543
1712257094402600000,0.634599853515625,0.15523052215576172,0.05271506309509277,-0.008975565433502197
1712257094412606700,0.644606689453125,0.10940837860107422,0.0300447940826416,-0.07550027966499329
1712257094422613500,0.654613525390625,0.06939029693603516,0.007309436798095703,-0.04405045509338379
1712257094432620300,0.664620361328125,-0.007556915283203125,0.027317047119140625,-0.0232866108417511
1712257094442627000,0.674626953125,-0.060120582580566406,0.02438640594482422,-0.030299276113510132
1712257094452633900,0.6846337890625,-0.013525962829589844,0.018033742904663086,-0.11105287075042725
1712257094462640600,0.694640625,0.10271549224853516,-0.01134800910949707,-0.18499529361724854
1712257094472647400,0.7046474609375,0.207977294921875,-0.04103970527648926,-0.23469454050064087
1712257094482654200,0.714654296875,0.2463541030883789,-0.0860896110534668,-0.2090091109275818
1712257094492661000,0.724660888671875,0.20027732849121094,-0.1089637279510498,-0.1699029505252838
1712257094502667800,0.734667724609375,0.051962852478027344,-0.07623672485351562,-0.14140728116035461
1712257094512674600,0.744674560546875,-0.027894020080566406,-0.04411745071411133,-0.048545658588409424
1712257094522681300,0.754681396484375,-0.0405120849609375,-0.0030095577239990234,0.05120822787284851
1712257094532688100,0.764688232421875,-0.05760002136230469,0.009152889251708984,0.17696025967597961
1712257094542695000,0.77469482421875,-0.10757732391357422,0.04518485069274902,0.2672522962093353
1712257094552702000,0.784701904296875,-0.15706539154052734,0.10955572128295898,0.24428790807724
1712257094562708700,0.794708740234375,-0.2251415252685547,0.10339140892028809,0.2564582824707031
1712257094572715500,0.804715576171875,-0.2647266387939453,0.12267160415649414,0.24753397703170776
1712257094582722300,0.814722412109375,-0.21503257751464844,0.12442898750305176,0.11003056168556213
1712257094592729000,0.82472900390625,-0.19015026092529297,0.03280997276306152,0.02860426902770996
1712257094602735900,0.83473583984375,-0.1613311767578125,-0.0282590389251709,-0.04616987705230713
1712257094612742700,0.84474267578125,-0.09535884857177734,-0.04098701477050781,-0.03191113471984863
1712257094622749700,0.854749755859375,-0.015952110290527344,-0.04941892623901367,-0.021328866481781006
1712257094632756500,0.864756591796875,0.05809593200683594,-0.007107973098754883,-0.01954212784767151
1712257094642763300,0.87476318359375,0.09858417510986328,0.014457225799560547,0.040720462799072266
1712257094652770000,0.88477001953125,0.09180450439453125,0.02049112319946289,0.1933814287185669
1712257094662776800,0.89477685546875,0.028699874877929688,0.08259248733520508,0.2374803125858307
1712257094672783600,0.90478369140625,-0.07137584686279297,0.11599564552307129,0.17032605409622192
1712257094682790700,0.914790771484375,-0.16117286682128906,0.12222528457641602,0.07825598120689392
1712257094692797400,0.92479736328125,-0.15165424346923828,0.031703948974609375,-0.0054982006549835205
1712257094702804200,0.93480419921875,-0.06301593780517578,-0.041565656661987305,-0.08624148368835449
1712257094712811000,0.94481103515625,0.0944528579711914,-0.07052421569824219,-0.09917828440666199
1712257094722817800,0.95481787109375,0.2922782897949219,-0.07202529907226562,-0.0987023264169693
1712257094732824600,0.964824462890625,0.4317197799682617,-0.05302119255065918,-0.14264899492263794
1712257094742831400,0.974831298828125,0.4482460021972656,-0.04304838180541992,-0.1930166631937027
1712257094752838400,0.98483837890625,0.3155364990234375,-0.046387672424316406,-0.1839698851108551
1712257094762845200,0.99484521484375,0.09660720825195312,-0.023657798767089844,-0.11545461416244507
1712257094772852000,1.00485205078125,-0.15166759490966797,-0.005911588668823242,-0.03403884172439575
1712257094782858800,1.014858642578125,-0.31661033630371094,0.036978960037231445,-0.009588062763214111
1712257094792865500,1.024865478515625,-0.41890621185302734,0.039707183837890625,0.01081913709640503
1712257094802872300,1.034872314453125,-0.37032604217529297,0.03163599967956543,0.12594592571258545
1712257094812879400,1.04487939453125,-0.23894882202148438,0.045018911361694336,0.1701202690601349
1712257094822886100,1.05488623046875,-0.0679178237915039,0.03570842742919922,0.10696044564247131
1712257094832893000,1.064892822265625,0.06270980834960938,0.002692699432373047,0.03608924150466919
1712257094842899700,1.074899658203125,0.1587667465209961,-0.012174606323242188,-0.05311122536659241
1712257094852906500,1.084906494140625,0.1929178237915039,-0.01933574676513672,-0.12802933156490326
1712257094862913300,1.094913330078125,0.13785171508789062,-0.023429393768310547,-0.11820797622203827
1712257094872920000,1.104920166015625,0.06517887115478516,-0.013965368270874023,-0.1329496204853058
1712257094882927000,1.114927001953125,0.03155040740966797,0.009129524230957031,-0.19027473032474518
1712257094892934000,1.124933837890625,-0.034630775451660156,-0.005408048629760742,-0.20029449462890625
1712257094902940700,1.134940673828125,-0.057659149169921875,-0.018903017044067383,-0.15409545600414276
1712257094912947500,1.144947509765625,-0.009996414184570312,-0.022065401077270508,-0.013928592205047607
1712257094922954200,1.154954345703125,0.03666114807128906,0.022255897521972656,0.1677861213684082
1712257094932961000,1.1649609375,0.0635061264038086,0.0848836898803711,0.2125973403453827
1712257094942967800,1.1749677734375,0.03328895568847656,0.08056426048278809,0.17443311214447021
1712257094952974800,1.184974853515625,-0.001323699951171875,0.04368877410888672,0.10510066151618958
1712257094962981600,1.194981689453125,0.0069561004638671875,0.02644515037536621,-0.010554313659667969
1712257094972988400,1.204988525390625,0.04359912872314453,-0.005082368850708008,-0.1209029108285904
1712257094982995200,1.2149951171875,0.056555747985839844,-0.03697800636291504,-0.1749049872159958
1712257094993002000,1.225001953125,-0.0008668899536132812,-0.07393026351928711,-0.19249776005744934
1712257095003008800,1.2350087890625,-0.04309368133544922,-0.07271909713745117,-0.15949788689613342
1712257095013015600,1.245015625,-0.06580638885498047,-0.03372645378112793,-0.02895534038543701
1712257095023022300,1.255022216796875,-0.11181449890136719,0.0001780986785888672,0.043262213468551636
1712257095033029000,1.265029052734375,-0.10089111328125,0.04837989807128906,0.09597215056419373
1712257095043036000,1.275035888671875,-0.04335212707519531,0.06342792510986328,0.23322603106498718
1712257095053042700,1.285042724609375,0.017937660217285156,0.09216904640197754,0.275867760181427
1712257095063049500,1.295049560546875,0.05018043518066406,0.10094356536865234,0.17316478490829468
1712257095073056300,1.30505615234375,0.020895004272460938,0.07138299942016602,0.03928428888320923
1712257095083063000,1.31506298828125,-0.07862186431884766,0.042493343353271484,-0.07792645692825317
1712257095093069800,1.32506982421875,-0.1063241958618164,-0.008377790451049805,-0.1835659146308899
1712257095103076400,1.335076416015625,-0.05863475799560547,-0.06689190864562988,-0.22602157294750214
1712257095113083100,1.345083251953125,-0.0023441314697265625,-0.10551714897155762,-0.18326349556446075
1712257095123090000,1.35508984375,0.05794525146484375,-0.06857681274414062,-0.07176941633224487
1712257095133096700,1.3650966796875,0.06583309173583984,-0.02366495132446289,0.01802965998649597
1712257095143103500,1.375103515625,0.0457763671875,0.019542932510375977,0.07740366458892822
1712257095153110300,1.3851103515625,-0.006628990173339844,0.05200600624084473,0.08364212512969971
1712257095163117000,1.395116943359375,-0.053412437438964844,0.07447576522827148,0.07977774739265442
1712257095173123800,1.405123779296875,-0.06187248229980469,0.06866288185119629,0.07078281044960022
1712257095183130600,1.415130615234375,-0.0800323486328125,0.06856298446655273,0.04389083385467529
1712257095193137400,1.425137451171875,-0.03714179992675781,0.03643226623535156,0.051938772201538086
1712257095203144200,1.435144287109375,0.014032363891601562,0.010300159454345703,0.03382217884063721
1712257095213151000,1.44515087890625,0.04059886932373047,-0.0008907318115234375,0.04539671540260315
1712257095223157800,1.45515771484375,0.052514076232910156,0.04478716850280762,0.05699506402015686
1712257095233164500,1.46516455078125,0.08789730072021484,0.056456565856933594,0.035480499267578125
1712257095243171300,1.47517138671875,0.10427188873291016,0.02931499481201172,0.018843412399291992
1712257095253178000,1.48517822265625,0.06902313232421875,-0.0031180381774902344,-0.058714210987091064
1712257095263185000,1.495184814453125,0.030078887939453125,-0.021790266036987305,-0.12177498638629913
1712257095273191700,1.505191650390625,-0.012537002563476562,-0.03615927696228027,-0.12924785912036896
1712257095283198500,1.515198486328125,-0.05891895294189453,-0.02237415313720703,-0.14816957712173462
1712257095293205200,1.525205322265625,-0.10451412200927734,-0.01340937614440918,-0.07888531684875488
1712257095303211800,1.535211669921875,-0.11203289031982422,-0.0037467479705810547,0.09733912348747253
1712257095313218600,1.545218505859375,-0.09637928009033203,0.03028702735900879,0.19238370656967163
1712257095323225300,1.555225341796875,-0.06735515594482422,0.06463432312011719,0.12382173538208008
1712257095333232000,1.565232177734375,-0.03921985626220703,0.07096719741821289,0.024837732315063477
1712257095343239000,1.575239013671875,-0.025995254516601562,0.026053190231323242,-0.04807308316230774
1712257095353245700,1.58524560546875,-0.02729320526123047,-0.027140378952026367,-0.09121942520141602
1712257095363252500,1.59525244140625,-0.03818225860595703,-0.04597926139831543,-0.1387752890586853
1712257095373259300,1.60525927734375,0.007603645324707031,-0.04552316665649414,-0.1631869077682495
1712257095383266000,1.61526611328125,0.07634258270263672,-0.03588366508483887,-0.0995689332485199
1712257095393272800,1.62527294921875,0.0642385482788086,0.0011184215545654297,-0.061446696519851685
1712257095403279600,1.635279541015625,-0.032156944274902344,0.018111705780029297,-0.11872746050357819
1712257095413286400,1.645286376953125,-0.08468246459960938,0.02109217643737793,-0.10572549700737
1712257095423293200,1.655293212890625,-0.21207141876220703,-0.003286123275756836,-0.036355793476104736
1712257095433300000,1.665300048828125,-0.3950014114379883,-0.062290191650390625,-0.04228699207305908
1712257095443306800,1.675306640625,-0.4353303909301758,-0.03636527061462402,-0.07003092765808105
1712257095453313500,1.6853134765625,-0.4578361511230469,-0.002272367477416992,0.01250678300857544
1712257095463320300,1.6953203125,-0.37345027923583984,0.07316160202026367,0.17451071739196777
1712257095473327000,1.7053271484375,-0.20688438415527344,0.11236739158630371,0.3359696865081787
1712257095483334000,1.715333984375,-0.14719581604003906,0.11439013481140137,0.38410890102386475
1712257095493340400,1.72534033203125,-0.17355728149414062,0.14544129371643066,0.154395192861557
1712257095503347200,1.73534716796875,-0.20441818237304688,0.11095142364501953,-0.09675821661949158
1712257095513354200,1.745354248046875,-0.23009300231933594,0.05886983871459961,-0.3054644465446472
1712257095523361000,1.755361083984375,-0.15645885467529297,-0.005749225616455078,-0.31847643852233887
1712257095533367800,1.765367919921875,0.0010366439819335938,-0.04590630531311035,-0.1760072559118271
1712257095543374600,1.77537451171875,0.09511947631835938,-0.053003787994384766,-0.07155787944793701
1712257095553381400,1.78538134765625,0.2258138656616211,-0.037344932556152344,0.08155468106269836
1712257095563388200,1.79538818359375,0.36439037322998047,-0.018573522567749023,0.19382449984550476
1712257095573395000,1.80539501953125,0.3787717819213867,0.0176541805267334,0.1622893512248993
1712257095583402000,1.815402099609375,0.5344467163085938,0.08115482330322266,0.1256645917892456
1712257095593408800,1.82540869140625,0.8722667694091797,0.13640141487121582,0.16826122999191284
1712257095603415600,1.83541552734375,1.2302274703979492,0.24648809432983398,0.18489211797714233
1712257095613422300,1.84542236328125,1.5289363861083984,0.28539586067199707,0.19009491801261902
1712257095623429000,1.85542919921875,1.9302148818969727,0.2520265579223633,0.2754478454589844
1712257095633436000,1.865435791015625,2.6128311157226562,0.17618274688720703,0.4226078987121582
1712257095643443000,1.87544287109375,3.6915950775146484,0.13725590705871582,0.4669116735458374
1712257095653449700,1.88544970703125,4.677324295043945,0.16594600677490234,0.3266521096229553
1712257095663456500,1.89545654296875,5.221922874450684,0.11690473556518555,-0.10845190286636353
1712257095673463300,1.90546337890625,5.53575325012207,-0.06432223320007324,-0.31531429290771484
1712257095683470000,1.915469970703125,4.840361595153809,-0.5136666297912598,-0.2923952639102936
1712257095693476900,1.925476806640625,3.562148094177246,-0.8986446857452393,-0.34675872325897217
1712257095703483600,1.935483642578125,2.2996530532836914,-1.0913150310516357,-0.432582825422287
1712257095713490700,1.94549072265625,1.1527690887451172,-1.1714391708374023,-0.4393526613712311
1712257095723497500,1.95549755859375,0.054053306579589844,-1.1447522640228271,-0.5452438592910767
1712257095733504300,1.965504150390625,-0.6299591064453125,-1.0516271591186523,-0.5826550722122192
1712257095743511000,1.975510986328125,-0.5658683776855469,-0.7843475341796875,-0.5359640121459961
1712257095753517800,1.985517822265625,0.21136760711669922,-0.44449424743652344,-0.2824031412601471
1712257095763524600,1.995524658203125,1.2180471420288086,-0.37602949142456055,0.24467259645462036
1712257095773531600,2.00553173828125,2.0403871536254883,-0.534172534942627,0.7513221502304077
1712257095783538400,2.015538330078125,2.107222080230713,-0.7937726974487305,1.0676474571228027
1712257095793545200,2.025545166015625,1.469468593597412,-1.1039986610412598,1.0611239671707153
1712257095803552000,2.035552001953125,0.46364736557006836,-1.289351463317871,0.6602367162704468
1712257095813558800,2.045558837890625,-0.26237916946411133,-1.2846107482910156,0.2112763226032257
1712257095823565600,2.055565673828125,-0.18070173263549805,-1.262193202972412,0.2992246747016907
1712257095833572400,2.065572265625,-0.4011082649230957,-1.308675765991211,0.23087053000926971
1712257095843579400,2.075579345703125,-0.48342037200927734,-1.2202081680297852,0.030311524868011475
1712257095853586200,2.085586181640625,-0.6194171905517578,-1.1214532852172852,-0.021316450089216232
1712257095863593000,2.095593017578125,-0.9862937927246094,-1.0074710845947266,0.010834657587110996
1712257095873599700,2.105599853515625,-1.494758129119873,-1.2060608863830566,0.4737810492515564
1712257095883606500,2.1156064453125,-1.916884422302246,-1.053199291229248,0.19769935309886932
1712257095893613300,2.12561328125,-1.6968388557434082,-0.9176244735717773,-0.018812015652656555
1712257095903620400,2.135620361328125,-0.3621983528137207,-0.7224750518798828,0.311242014169693
1712257095913627100,2.145627197265625,0.7339038848876953,-0.7761650085449219,0.6726926565170288
1712257095923634000,2.155634033203125,0.5019469261169434,-1.040492057800293,0.6183860898017883
1712257095933640700,2.165640625,-0.7021307945251465,-1.4062528610229492,0.2740662395954132
1712257095943647500,2.1756474609375,-2.240126609802246,-1.4635610580444336,-0.1697319746017456
1712257095953654300,2.185654296875,-3.1756322383880615,-1.2594690322875977,-0.4445362687110901
1712257095963661000,2.1956611328125,-2.934828758239746,-1.14213228225708,-0.33493703603744507
1712257095973667800,2.205667724609375,-2.0468547344207764,-1.1345314979553223,-0.44283682107925415
1712257095983674600,2.215674560546875,-1.071516990661621,-1.0848698616027832,-0.8602669835090637
1712257095993681400,2.225681396484375,-0.4592247009277344,-0.7635831832885742,-0.2551436126232147
1712257096003688200,2.235688232421875,-0.8523812294006348,-1.0001201629638672,-0.49871107935905457
1712257096013695000,2.245695068359375,-1.330010175704956,-1.075242042541504,-0.28535565733909607
1712257096023701800,2.25570166015625,-1.9313087463378906,-1.201648235321045,-0.12806236743927002
1712257096033708500,2.26570849609375,-2.5614216327667236,-1.1911916732788086,-0.08265751600265503
1712257096043715300,2.27571533203125,-2.767014503479004,-0.9909486770629883,-0.17701297998428345
1712257096053722000,2.28572216796875,-2.851428270339966,-0.6973981857299805,-0.35812249779701233
1712257096063729000,2.29572900390625,-2.8721554279327393,-0.4975566864013672,-0.2811816930770874
1712257096073735700,2.305735595703125,-2.6282999515533447,-0.41570281982421875,-0.12942034006118774
1712257096083742500,2.315742431640625,-2.3269472122192383,-0.3767356872558594,0.06481395661830902
1712257096093749200,2.325749267578125,-1.6449198722839355,-0.2247791290283203,0.20985880494117737
1712257096103756000,2.335756103515625,-0.6446332931518555,-0.16748523712158203,0.4388604462146759
1712257096113762800,2.3457626953125,0.19487738609313965,-0.24552154541015625,0.6403063535690308
1712257096123769600,2.35576953125,0.5166702270507812,-0.28342151641845703,0.562464714050293
1712257096133776400,2.3657763671875,-0.2904081344604492,-0.30408382415771484,0.37135374546051025
1712257096143783000,2.375782958984375,-1.385256052017212,-0.2129974365234375,0.21796751022338867
1712257096153789700,2.385789794921875,-1.591294765472412,0.012083053588867188,-0.1358572244644165
1712257096163796500,2.39579638671875,-1.2128931283950806,0.055774688720703125,-0.19564926624298096
1712257096173803300,2.40580322265625,-0.3834104537963867,0.07850265502929688,-0.07609164714813232
1712257096183810000,2.41581005859375,0.4075627326965332,0.15409469604492188,-0.14203858375549316
1712257096193816800,2.42581689453125,1.091235876083374,0.09891796112060547,0.08660644292831421
1712257096203823600,2.43582373046875,1.176706075668335,0.10760307312011719,0.19986099004745483
1712257096213830400,2.445830322265625,0.38272643089294434,0.109039306640625,0.19259315729141235
1712257096223837200,2.455837158203125,-0.4725308418273926,0.08261966705322266,0.18028753995895386
1712257096233844000,2.465843994140625,-0.8616390228271484,0.15457534790039062,0.07436949014663696
1712257096243850800,2.475850830078125,-0.8341329097747803,0.10982894897460938,0.20910504460334778
1712257096253857500,2.485857421875,-0.7751054763793945,0.0909414291381836,0.4330996870994568
1712257096263864300,2.4958642578125,-0.7021863460540771,0.20221900939941406,0.4029821753501892
1712257096273871000,2.50587109375,-0.5854723453521729,0.09466934204101562,0.44734513759613037
1712257096283878000,2.5158779296875,-0.7581560611724854,-0.0784597396850586,0.3756047785282135
1712257096293884700,2.525884765625,-0.8961391448974609,-0.2401275634765625,0.2679111957550049
1712257096303891500,2.535891357421875,-0.6991891860961914,-0.27579212188720703,0.15982288122177124
1712257096313898200,2.545898193359375,-0.4378166198730469,-0.3107929229736328,0.12382891774177551
1712257096323905000,2.555905029296875,0.0238494873046875,-0.2743654251098633,0.07775899767875671
1712257096333911800,2.565911865234375,0.29172682762145996,-0.20093917846679688,-0.2326788306236267
1712257096343918300,2.57591845703125,0.32886648178100586,-0.2958507537841797,-0.35947245359420776
1712257096353925000,2.585925048828125,0.17315077781677246,-0.3100709915161133,-0.3749012351036072
1712257096363932000,2.595931884765625,-0.17724061012268066,-0.2621946334838867,-0.36974644660949707
1712257096373938700,2.605938720703125,-0.5387709140777588,-0.14662837982177734,-0.36398717761039734
1712257096383945500,2.615945556640625,-1.0288450717926025,-0.03419685363769531,-0.3193441927433014
1712257096393952300,2.6259521484375,-0.923393726348877,0.004075050354003906,-0.0164794921875
1712257096403959000,2.635958984375,-0.5603089332580566,0.13919639587402344,0.24011868238449097
1712257096413965800,2.6459658203125,-0.2791149616241455,0.05421733856201172,0.5606285929679871
1712257096423972600,2.65597265625,-0.1920948028564453,-0.10765743255615234,0.6895160675048828
1712257096433979400,2.6659794921875,-0.6440072059631348,-0.23581409454345703,0.5761401057243347
1712257096443986200,2.675986083984375,-1.6344009637832642,-0.4475574493408203,0.4571661055088043
1712257096453993000,2.685992919921875,-2.425819158554077,-0.5104427337646484,0.3450663089752197
1712257096463999700,2.695999755859375,-2.9625067710876465,-0.43708038330078125,0.13278600573539734
1712257096474006500,2.706006591796875,-3.5197625160217285,-0.43651676177978516,0.09716793894767761
1712257096484013300,2.716013427734375,-3.986116409301758,-0.4731721878051758,-0.11161436140537262
1712257096494020000,2.72602001953125,-4.000061988830566,-0.5978488922119141,-0.29348045587539673
1712257096504027000,2.73602685546875,-3.3537685871124268,-0.7962169647216797,-0.07117860019207001
1712257096514033700,2.74603369140625,-1.9240448474884033,-0.8089542388916016,0.06363043189048767
1712257096524040400,2.75604052734375,-0.6546549797058105,-0.7134246826171875,0.17693525552749634
1712257096534047500,2.766047607421875,-0.5637524127960205,-0.7568626403808594,0.4955166280269623
1712257096544054300,2.77605419921875,-1.448411464691162,-0.8885102272033691,0.4532043933868408
1712257096554061000,2.78606103515625,-2.5252182483673096,-1.0493645668029785,0.2573840618133545
1712257096564067800,2.79606787109375,-3.455948829650879,-1.2660551071166992,0.34357550740242004
1712257096574074600,2.80607470703125,-3.606994152069092,-1.4381499290466309,0.5203951001167297
1712257096584081400,2.816081298828125,-2.96716570854187,-1.5991206169128418,0.4417055547237396
1712257096594088200,2.826088134765625,-2.4073712825775146,-1.809854507446289,0.33608147501945496
1712257096604095200,2.83609521484375,-2.279022216796875,-2.0246787071228027,0.18314102292060852
1712257096614102000,2.84610205078125,-2.4928598403930664,-2.2052459716796875,0.0003477632999420166
1712257096624108800,2.85610888671875,-3.015411615371704,-2.497319221496582,0.06615027785301208
1712257096634115600,2.866115478515625,-3.375847578048706,-2.7531871795654297,0.31704002618789673
1712257096644122400,2.876122314453125,-3.41281795501709,-3.0319182872772217,0.5085917711257935
1712257096654129200,2.886129150390625,-2.441650867462158,-3.1757469177246094,1.0558987855911255
1712257096664136000,2.896135986328125,-0.8001465797424316,-2.8860554695129395,1.2310848236083984
1712257096674143000,2.90614306640625,1.016038417816162,-2.5641050338745117,0.9245636463165283
1712257096684149800,2.916149658203125,2.4234423637390137,-2.179539680480957,0.22752827405929565
1712257096694156500,2.926156494140625,2.8726158142089844,-1.7687106132507324,-0.4664972126483917
1712257096704163300,2.936163330078125,2.629955291748047,-1.540544033050537,-0.6992939114570618
1712257096714170000,2.946170166015625,2.091702461242676,-1.4926302433013916,-0.6530013680458069
1712257096724177000,2.956177001953125,1.2426443099975586,-1.6226930618286133,-0.501152515411377
1712257096734184000,2.966183837890625,0.3536100387573242,-1.8633742332458496,-0.4093407094478607
1712257096744190700,2.976190673828125,-0.016084671020507812,-2.0106124877929688,-0.35738325119018555
1712257096754197500,2.986197509765625,0.4764747619628906,-2.0442886352539062,0.031587183475494385
1712257096764204300,2.996204345703125,1.814422607421875,-1.662529468536377,0.77144855260849
1712257096774211000,3.006211181640625,3.5480775833129883,-0.9116909503936768,1.1360890865325928
1712257096784217900,3.0162177734375,4.730907440185547,-0.16237902641296387,1.1379621028900146
1712257096794224600,3.026224609375,5.169102668762207,0.4107377529144287,1.2520970106124878
1712257096804231700,3.036231689453125,5.282870292663574,0.8681008815765381,1.448899269104004
1712257096814238500,3.046238525390625,5.285443305969238,1.253086805343628,1.3560590744018555
1712257096824245200,3.056245361328125,5.036153793334961,1.4490911960601807,1.0457407236099243
1712257096834252000,3.066251953125,4.9864702224731445,1.2616984844207764,0.5756494998931885
1712257096844258800,3.0762587890625,5.106263160705566,0.9310688972473145,0.19208824634552002
1712257096854265600,3.086265625,4.701462745666504,0.4526146650314331,-0.20322495698928833
1712257096864272600,3.096272705078125,3.8240365982055664,0.015175223350524902,-0.7795946002006531
1712257096874279400,3.106279541015625,2.9743165969848633,-0.3343377113342285,-1.2948142290115356
1712257096884286200,3.1162861328125,2.4947662353515625,-0.6145482063293457,-1.4297181367874146
1712257096894293000,3.12629296875,2.4417428970336914,-0.6770899295806885,-1.2226240634918213
1712257096904299800,3.1362998046875,2.5714550018310547,-0.5226969718933105,-0.976346492767334
1712257096914306600,3.146306640625,2.6412391662597656,-0.24325048923492432,-0.7721567153930664
1712257096924313300,3.156313232421875,2.4134931564331055,0.02901935577392578,-0.49081650376319885
1712257096934320400,3.1663203125,1.8413619995117188,0.18545007705688477,-0.23539119958877563
1712257096944327200,3.1763271484375,1.0920791625976562,0.24516570568084717,-0.10960936546325684
1712257096954334000,3.186333984375,0.4468269348144531,0.24752533435821533,-0.08019095659255981
1712257096964340700,3.1963408203125,-0.1433858871459961,0.1591893434524536,-0.09851562976837158
1712257096974347500,3.206347412109375,-0.4408988952636719,0.03651309013366699,-0.07692372798919678
1712257096984354300,3.216354248046875,-0.5137939453125,-0.057651638984680176,-0.013244032859802246
1712257096994361000,3.226361083984375,-0.5346469879150391,-0.13397324085235596,0.22458016872406006
1712257097004368000,3.236367919921875,-0.47498226165771484,-0.054422736167907715,0.374628484249115
1712257097014374700,3.246374755859375,-0.2629213333129883,0.08728194236755371,0.2362762689590454
1712257097024381400,3.25638134765625,-0.06035804748535156,0.16400253772735596,-0.028340697288513184
1712257097034388000,3.266387939453125,0.07143497467041016,0.17355692386627197,-0.3722577393054962
1712257097044394800,3.276394775390625,0.03256416320800781,0.06802630424499512,-0.6438574194908142
1712257097054401500,3.286401611328125,-0.066864013671875,-0.08914482593536377,-0.7809749841690063
1712257097064408300,3.296408203125,-0.21276187896728516,-0.2148531675338745,-0.6820195913314819
1712257097074415000,3.3064150390625,-0.4295167922973633,-0.2591656446456909,-0.21913164854049683
1712257097084422000,3.316421875,-0.4933319091796875,-0.11459040641784668,0.20503076910972595
1712257097094428700,3.3264287109375,-0.5961551666259766,0.023838520050048828,0.48542752861976624
1712257097104435500,3.336435546875,-0.7002038955688477,0.1818089485168457,0.5861537456512451
1712257097114442200,3.346442138671875,-0.5762901306152344,0.3116123676300049,0.44855785369873047
1712257097124449000,3.356448974609375,-0.34856605529785156,0.2963237762451172,0.3474714756011963
1712257097134455800,3.366455810546875,-0.10736751556396484,0.21998119354248047,0.10265558958053589
1712257097144462600,3.376462646484375,0.21967506408691406,0.18505525588989258,-0.35638925433158875
1712257097154469400,3.386469482421875,0.3368387222290039,0.04619097709655762,-0.5386041402816772
1712257097164476200,3.39647607421875,0.4117469787597656,-0.10998320579528809,-0.4966832399368286
1712257097174483000,3.40648291015625,0.6071157455444336,-0.19420886039733887,-0.37731069326400757
1712257097184489700,3.41648974609375,0.4786081314086914,-0.28893542289733887,-0.2515050768852234
1712257097194496500,3.42649658203125,0.059845924377441406,-0.23793506622314453,-0.1811366081237793
1712257097204503300,3.43650341796875,-0.30570220947265625,-0.1322309970855713,-0.08993172645568848
1712257097214510000,3.446510009765625,-0.5808334350585938,-0.002498149871826172,0.09088829159736633
1712257097224516900,3.456516845703125,-0.7521800994873047,0.11026716232299805,0.25892382860183716
1712257097234523400,3.4665234375,-0.6146926879882812,0.22047185897827148,0.25946611166000366
1712257097244530200,3.4765302734375,-0.3068075180053711,0.24401140213012695,0.11729389429092407
1712257097254537000,3.486536865234375,-0.07155895233154297,0.15842247009277344,0.017425954341888428
1712257097264543700,3.496543701171875,0.12529373168945312,0.07632946968078613,-0.12726444005966187
1712257097274550500,3.506550537109375,0.21269512176513672,0.0009279251098632812,-0.22253143787384033
1712257097284557300,3.516557373046875,0.16233348846435547,-0.0584111213684082,-0.2584075927734375
1712257097294564000,3.526564208984375,0.17496013641357422,-0.0866708755493164,-0.3209346830844879
1712257097304571000,3.53657080078125,0.10243034362792969,-0.13665199279785156,-0.23790569603443146
1712257097314577700,3.54657763671875,-0.13195228576660156,-0.15398669242858887,-0.14098820090293884
1712257097324584400,3.55658447265625,-0.35173702239990234,-0.05995798110961914,-0.0432489812374115
1712257097334591200,3.56659130859375,-0.5765857696533203,0.02747941017150879,0.2573073208332062
1712257097344598000,3.576597900390625,-0.7833395004272461,0.16300034523010254,0.4102827310562134
1712257097354604800,3.586604736328125,-0.7669878005981445,0.2567276954650879,0.4206564128398895
1712257097364611600,3.596611572265625,-0.5321512222290039,0.28275418281555176,0.37467342615127563
1712257097374618400,3.606618408203125,-0.3363761901855469,0.247788667678833,0.2027159035205841
1712257097384625200,3.616625244140625,-0.1646404266357422,0.15477490425109863,-0.05843988060951233
1712257097394632000,3.6266318359375,-0.011713027954101562,0.016767501831054688,-0.22777478396892548
1712257097404638700,3.636638671875,0.05595684051513672,-0.07187914848327637,-0.33951517939567566
1712257097414645500,3.6466455078125,0.019449234008789062,-0.11593341827392578,-0.35496872663497925
1712257097424652000,3.656652099609375,-0.1573314666748047,-0.15030145645141602,-0.24515990912914276
1712257097434658800,3.666658935546875,-0.3406839370727539,-0.11279511451721191,0.021547287702560425
1712257097444665600,3.67666552734375,-0.5077495574951172,-0.002197265625,0.23921474814414978
1712257097454672400,3.68667236328125,-0.5180206298828125,0.11107158660888672,0.31657788157463074
1712257097464679200,3.69667919921875,-0.43533897399902344,0.18927907943725586,0.2420687973499298
1712257097474686000,3.70668603515625,-0.24662113189697266,0.17020964622497559,0.1197982132434845
1712257097484693000,3.71669287109375,-0.037639617919921875,0.15662264823913574,-0.0376720130443573
1712257097494699800,3.72669970703125,0.1637105941772461,0.136674165725708,-0.2175639569759369
1712257097504706600,3.73670654296875,0.21191692352294922,0.08577823638916016,-0.35897499322891235
1712257097514713300,3.74671337890625,0.2789478302001953,0.0283353328704834,-0.35901588201522827
1712257097524720000,3.75672021484375,0.3504209518432617,-0.03604626655578613,-0.20434293150901794
1712257097534727000,3.766726806640625,0.3367471694946289,-0.046015262603759766,0.06580770015716553
1712257097544733700,3.776733642578125,0.21555423736572266,0.05522942543029785,0.24109622836112976
1712257097554740700,3.78674072265625,0.03989696502685547,0.1124105453491211,0.27196961641311646
1712257097564747500,3.79674755859375,-0.10970020294189453,0.10903048515319824,0.24118614196777344
1712257097574754300,3.80675439453125,-0.22451305389404297,0.08466172218322754,0.1643308699131012
1712257097584761000,3.816760986328125,-0.22999858856201172,0.13457608222961426,-0.07522791624069214
1712257097594768000,3.826767822265625,-0.08536911010742188,0.12007927894592285,-0.23466375470161438
1712257097604774700,3.836774658203125,0.03782081604003906,0.03566265106201172,-0.2109803706407547
1712257097614781700,3.84678173828125,0.24409866333007812,0.017052650451660156,-0.1733100414276123
1712257097624788500,3.85678857421875,0.33025550842285156,0.004138469696044922,-0.1310761570930481
1712257097634795300,3.866795166015625,0.19493770599365234,-0.03697371482849121,0.00018131732940673828
1712257097644802000,3.876802001953125,0.029703140258789062,0.004848003387451172,0.10309988260269165
1712257097654808800,3.886808837890625,-0.05218315124511719,0.07269835472106934,0.2155781090259552
1712257097664815600,3.896815673828125,-0.19366168975830078,0.11507773399353027,0.3493056297302246
1712257097674822400,3.906822509765625,-0.3753776550292969,0.13909125328063965,0.33809608221054077
1712257097684829400,3.916829345703125,-0.522059440612793,0.14756345748901367,0.209085613489151
1712257097694836200,3.926836181640625,-0.5405387878417969,0.0856924057006836,0.06342625617980957
1712257097704843000,3.936843017578125,-0.28685855865478516,0.038971662521362305,-0.051925837993621826
1712257097714849800,3.946849853515625,0.05163764953613281,-0.015027999877929688,-0.13134795427322388
1712257097724856600,3.956856689453125,0.22479820251464844,-0.027456045150756836,-0.14699968695640564
1712257097734863400,3.96686328125,0.2968626022338867,0.004800081253051758,-0.09109735488891602
1712257097744870400,3.976870361328125,0.31668949127197266,0.05240035057067871,0.016448795795440674
1712257097754877200,3.986877197265625,0.2805185317993164,0.1007089614868164,-0.008986234664916992
1712257097764884000,3.996884033203125,0.1704416275024414,0.09351515769958496,0.0266420841217041
1712257097774890800,4.006890869140625,0.08156394958496094,0.07538986206054688,0.05095285177230835
1712257097784897500,4.0168974609375,-0.019664764404296875,0.04741525650024414,0.026469051837921143
1712257097794904300,4.026904296875,-0.19934368133544922,0.00614166259765625,-0.03505063056945801
1712257097804911000,4.0369111328125,-0.32498645782470703,0.0011997222900390625,-0.1515599489212036
1712257097814918100,4.046918212890625,-0.3885631561279297,-0.04673123359680176,-0.1224839985370636
1712257097824925000,4.056925048828125,-0.3961153030395508,-0.037479400634765625,-0.06088802218437195
1712257097834931700,4.066931640625,-0.24939441680908203,-0.015375614166259766,-0.0618913471698761
1712257097844938500,4.0769384765625,-0.07264423370361328,0.012545585632324219,-0.028345435857772827
1712257097854945300,4.0869453125,0.16277790069580078,0.0765681266784668,-0.13364341855049133
1712257097864952000,4.0969521484375,0.3343219757080078,0.10755014419555664,-0.22253477573394775
1712257097874958800,4.106958740234375,0.3446378707885742,0.052660226821899414,-0.24876314401626587
1712257097884966000,4.1169658203125,0.20087242126464844,0.027536869049072266,-0.2478877156972885
1712257097894972700,4.12697265625,0.03205299377441406,-0.01810932159423828,-0.18484190106391907
1712257097904979500,4.1369794921875,-0.15750503540039062,-0.0674443244934082,-0.07643997669219971
1712257097914986200,4.146986328125,-0.21749210357666016,-0.06646060943603516,0.040812671184539795
1712257097924993000,4.156992919921875,-0.23978424072265625,-0.02525639533996582,0.14680218696594238
1712257097934999800,4.166999755859375,-0.3098001480102539,0.008357048034667969,0.11994040012359619
1712257097945006800,4.1770068359375,-0.3561830520629883,0.03980445861816406,0.0404973030090332
1712257097955013600,4.187013671875,-0.3272857666015625,0.06386876106262207,-0.07349219918251038
1712257097965020400,4.1970205078125,-0.20515918731689453,0.04232954978942871,-0.0880919098854065
1712257097975027200,4.207027099609375,0.046988487243652344,0.04461359977722168,-0.11535027623176575
1712257097985034000,4.217033935546875,0.2769432067871094,0.0442204475402832,-0.10617110133171082
1712257097995040800,4.227040771484375,0.3112154006958008,0.03970050811767578,-0.07397153973579407
1712257098005047300,4.23704736328125,0.19510269165039062,0.022909164428710938,-0.06620898842811584
1712257098015054000,4.24705419921875,0.024713516235351562,-0.013401985168457031,-0.0022179484367370605
1712257098025060900,4.257060791015625,-0.10546493530273438,-0.029195785522460938,0.09355169534683228
1712257098035067600,4.267067626953125,-0.1681976318359375,0.004214763641357422,0.1332772970199585
1712257098045074400,4.277074462890625,-0.2212533950805664,0.029961824417114258,0.1980401873588562
1712257098055081200,4.287081298828125,-0.20357894897460938,0.0718069076538086,0.12205594778060913
1712257098065088000,4.297087890625,-0.08298397064208984,0.07672739028930664,0.01832449436187744
1712257098075094800,4.3070947265625,0.03576087951660156,0.07203841209411621,-0.07187256217002869
1712257098085101600,4.3171015625,0.19548320770263672,0.07089829444885254,-0.1644902229309082
1712257098095108400,4.3271083984375,0.2827577590942383,0.04845547676086426,-0.17295503616333008
1712257098105115100,4.337115234375,0.2989368438720703,-0.00034880638122558594,-0.12106752395629883
1712257098115122000,4.347121826171875,0.11301326751708984,-0.02234053611755371,-0.04134654998779297
1712257098125128700,4.357128662109375,-0.08872127532958984,-0.0015683174133300781,-0.05101943016052246
1712257098135135500,4.367135498046875,-0.17933368682861328,0.020565032958984375,-0.026766955852508545
1712257098145142300,4.377142333984375,-0.2928581237792969,0.021436691284179688,0.0695391297340393
1712257098155149000,4.387149169921875,-0.33029747009277344,0.021094083786010742,0.11912846565246582
1712257098165155800,4.39715576171875,-0.2269420623779297,0.033684492111206055,0.17355459928512573
1712257098175162600,4.40716259765625,-0.041092872619628906,0.04768085479736328,0.2187677025794983
1712257098185169400,4.41716943359375,0.0946187973022461,0.07050561904907227,0.1323692798614502
1712257098195176000,4.427176025390625,0.17684459686279297,0.09114646911621094,-0.009767651557922363
1712257098205182700,4.4371826171875,0.18791961669921875,0.08545637130737305,-0.17530187964439392
1712257098215189500,4.447189453125,0.10082435607910156,0.01605844497680664,-0.22735831141471863
1712257098225196300,4.4571962890625,-0.10683536529541016,-0.04867267608642578,-0.18530601263046265
1712257098235203000,4.467203125,-0.2877655029296875,-0.05026674270629883,-0.12939661741256714
1712257098245209900,4.4772099609375,-0.4193429946899414,-0.030686378479003906,-0.0779152512550354
1712257098255216600,4.487216552734375,-0.4886207580566406,-0.01746964454650879,-0.04423403739929199
1712257098265223400,4.497223388671875,-0.4167137145996094,-0.005144834518432617,0.02259761095046997
1712257098275230200,4.507230224609375,-0.2290630340576172,0.023721694946289062,0.12148082256317139
1712257098285237000,4.517237060546875,-0.016460418701171875,0.07156133651733398,0.1434308886528015
1712257098295243800,4.527243896484375,0.17424774169921875,0.08430862426757812,0.06942427158355713
1712257098305250600,4.53725048828125,0.22140979766845703,0.03282761573791504,0.04255414009094238
1712257098315257300,4.54725732421875,0.2026376724243164,0.012969017028808594,0.028096795082092285
1712257098325264100,4.55726416015625,0.14214515686035156,0.0207059383392334,0.0035710930824279785
1712257098335271000,4.56727099609375,0.14386844635009766,0.0282285213470459,-0.034136414527893066
1712257098345277700,4.577277587890625,0.23511695861816406,0.03053450584411621,-0.023791730403900146
1712257098355284500,4.587284423828125,0.30628204345703125,0.04584622383117676,-0.008247733116149902
1712257098365291300,4.597291259765625,0.3578357696533203,0.04039120674133301,-0.01063847541809082
1712257098375298000,4.607298095703125,0.3619699478149414,0.03758597373962402,-0.002129495143890381
1712257098385304800,4.617304931640625,0.25823307037353516,0.009132146835327148,-0.024782538414001465
1712257098395311400,4.627311279296875,0.052715301513671875,0.022957801818847656,-0.02214103937149048
1712257098405318100,4.637318115234375,-0.14041519165039062,0.05668926239013672,0.06183356046676636
1712257098415325000,4.647324951171875,-0.09084129333496094,0.10613656044006348,0.14494621753692627
1712257098425331700,4.657331787109375,0.023621559143066406,0.131805419921875,0.2178415060043335
1712257098435338500,4.66733837890625,0.0892477035522461,0.11873984336853027,0.2805662155151367
1712257098445345300,4.67734521484375,0.12112903594970703,0.08573770523071289,0.22102200984954834
1712257098455352000,4.68735205078125,0.20011329650878906,0.04192233085632324,0.06858927011489868
1712257098465358800,4.69735888671875,0.27875804901123047,0.009993553161621094,-0.08772283792495728
1712257098475366000,4.707365966796875,0.25847625732421875,0.002945423126220703,-0.18682751059532166
1712257098485372700,4.71737255859375,0.13123226165771484,-0.011686086654663086,-0.276555597782135
1712257098495379500,4.72737939453125,-0.10645198822021484,-0.05068469047546387,-0.32889196276664734
1712257098505386200,4.73738623046875,-0.36899852752685547,-0.1199636459350586,-0.31922447681427
1712257098515393000,4.74739306640625,-0.49651622772216797,-0.13709592819213867,-0.2571876645088196
1712257098525399800,4.75739990234375,-0.40191078186035156,-0.1213226318359375,-0.1536506712436676
1712257098535406800,4.76740673828125,-0.27663516998291016,-0.08466029167175293,0.009755730628967285
1712257098545413600,4.77741357421875,-0.14429759979248047,-0.03383016586303711,0.10581046342849731
1712257098555420400,4.78742041015625,-0.07058429718017578,0.04432559013366699,0.12385714054107666
1712257098565427200,4.79742724609375,-0.07786846160888672,0.09216785430908203,0.07485127449035645
1712257098575434000,4.80743408203125,-0.15548419952392578,0.07776474952697754,0.010767519474029541
1712257098585440800,4.817440673828125,-0.2083139419555664,0.026515960693359375,-0.030818164348602295
1712257098595447600,4.827447509765625,-0.20873546600341797,-0.008554697036743164,-0.049706459045410156
1712257098605454600,4.83745458984375,-0.08690738677978516,0.0047609806060791016,-0.05937474966049194
1712257098615461400,4.84746142578125,-0.00010967254638671875,-0.0010530948638916016,-0.030148446559906006
1712257098625468200,4.85746826171875,0.11344146728515625,0.011885881423950195,0.009791553020477295
1712257098635475000,4.867474853515625,0.5126409530639648,0.17396116256713867,0.022205471992492676
1712257098645481700,4.877481689453125,0.8829402923583984,0.314300537109375,-0.0141640305519104
1712257098655488500,4.887488525390625,1.0183534622192383,0.18166422843933105,0.032146334648132324
1712257098665495600,4.89749560546875,0.6684513092041016,-0.016871929168701172,0.09544962644577026
1712257098675502300,4.90750244140625,-0.23119640350341797,-0.06820559501647949,-0.042895376682281494
1712257098685509000,4.917509033203125,-0.5336790084838867,0.04791522026062012,-0.37623023986816406
1712257098695516000,4.927515869140625,-0.4465370178222656,-0.027901649475097656,-0.21099287271499634
1712257098705522700,4.937522705078125,-0.3571033477783203,-0.04695725440979004,0.02812725305557251
1712257098715529500,4.947529541015625,-0.2226877212524414,-0.00762939453125,0.209050714969635
1712257098725536300,4.957536376953125,-0.08146476745605469,0.15906071662902832,0.15320080518722534
1712257098735543300,4.967543212890625,-0.008818626403808594,0.26196861267089844,0.06955933570861816
1712257098745550000,4.977550048828125,0.029443740844726562,0.2220168113708496,0.10354107618331909
1712257098755556900,4.987556884765625,-0.11211395263671875,0.10760617256164551,0.11222606897354126
1712257098765563600,4.997563720703125,-0.3557863235473633,0.03470349311828613,0.07421070337295532
1712257098775570400,5.0075703125,-0.5264606475830078,-0.07944226264953613,0.19231900572776794
1712257098785577200,5.0175771484375,-0.5972824096679688,-0.22888946533203125,0.2763383686542511
1712257098795584300,5.027584228515625,-0.5414218902587891,-0.2678337097167969,0.08311042189598083
1712257098805591000,5.037591064453125,-0.31786632537841797,-0.16154861450195312,-0.050863295793533325
1712257098815597800,5.047597900390625,0.10010623931884766,-0.028795242309570312,-0.14597612619400024
1712257098825604600,5.0576044921875,0.6074647903442383,0.09638762474060059,-0.1375608593225479
1712257098835611400,5.067611328125,0.7659463882446289,0.08758711814880371,-0.011637747287750244
1712257098845618200,5.0776181640625,0.5716428756713867,0.05575871467590332,0.07826948165893555
1712257098855625000,5.087625,0.2881784439086914,0.08029818534851074,-0.05274003744125366
1712257098865632000,5.097632080078125,0.019254684448242188,0.07048726081848145,-0.08472058176994324
1712257098875638800,5.107638671875,-0.15635204315185547,0.01124715805053711,-0.04654198884963989
1712257098885645600,5.1176455078125,-0.13233089447021484,-0.029395341873168945,-0.05649629235267639
1712257098895652400,5.12765234375,-0.0625,-0.10442113876342773,-0.09761255979537964
1712257098905659100,5.1376591796875,-0.0649423599243164,-0.16756129264831543,-0.17313353717327118
1712257098915666000,5.147666015625,-0.13834190368652344,-0.16278862953186035,-0.28784316778182983
1712257098925672700,5.157672607421875,-0.22517681121826172,-0.11414933204650879,-0.37610092759132385
1712257098935679500,5.167679443359375,-0.19807720184326172,-0.09290385246276855,-0.2605663537979126
1712257098945686300,5.177686279296875,-0.12920856475830078,-0.062157392501831055,-0.047525227069854736
1712257098955693000,5.187693115234375,-0.07549285888671875,-0.037226200103759766,0.09791532158851624
1712257098965699800,5.197699951171875,0.010640144348144531,-0.004211902618408203,0.21560132503509521
1712257098975706600,5.20770654296875,0.025305747985839844,0.01239633560180664,0.3016318380832672
1712257098985713400,5.21771337890625,-0.016082763671875,0.04072761535644531,0.26317936182022095
1712257098995720200,5.22772021484375,-0.07044315338134766,0.09579753875732422,0.1747734248638153
1712257099005727000,5.23772705078125,-0.18022727966308594,0.12166261672973633,0.060311734676361084
1712257099015733800,5.247733642578125,-0.2648334503173828,0.12934279441833496,-0.050909578800201416
1712257099025740500,5.257740478515625,-0.30631542205810547,0.10652399063110352,-0.09310322999954224
1712257099035747300,5.267747314453125,-0.24442100524902344,0.0636298656463623,-0.013523757457733154
1712257099045754000,5.277754150390625,-0.07599258422851562,0.014101505279541016,0.09524416923522949
1712257099055761000,5.287760986328125,0.11753082275390625,0.013151407241821289,0.17737475037574768
1712257099065767700,5.297767578125,0.16657638549804688,0.030236244201660156,0.19325074553489685
1712257099075774500,5.3077744140625,0.05922412872314453,0.06081962585449219,0.13534244894981384
1712257099085781200,5.31778125,-0.004265785217285156,0.09126806259155273,-0.0024007856845855713
1712257099095788000,5.3277880859375,0.11697006225585938,0.09776759147644043,-0.03085687756538391
1712257099105794800,5.337794921875,0.24640464782714844,0.05971407890319824,-0.028988689184188843
1712257099115801600,5.347801513671875,0.3278770446777344,0.028250932693481445,0.05363243818283081
1712257099125808000,5.35780810546875,0.3102550506591797,0.017770767211914062,0.145514577627182
1712257099135815000,5.36781494140625,0.19965362548828125,0.03289675712585449,0.17008531093597412
1712257099145821700,5.37782177734375,-0.022205352783203125,0.028972148895263672,0.1538504660129547
1712257099155828500,5.387828369140625,-0.19887638092041016,0.04157090187072754,0.04675665497779846
1712257099165835300,5.397835205078125,-0.27030277252197266,0.05751466751098633,-0.08836224675178528
1712257099175842000,5.407842041015625,-0.2947053909301758,0.015565872192382812,-0.1908377707004547
1712257099185848800,5.417848876953125,-0.1784353256225586,-0.022588014602661133,-0.2209320068359375
1712257099195855600,5.427855712890625,0.058190345764160156,-0.06416201591491699,-0.17670735716819763
1712257099205862400,5.4378623046875,0.20681095123291016,-0.09291505813598633,-0.12021875381469727
1712257099215869200,5.447869140625,0.2645606994628906,-0.08182883262634277,-0.005708575248718262
1712257099225876000,5.4578759765625,0.2848796844482422,0.0008635520935058594,0.05829763412475586
1712257099235882800,5.4678828125,0.20705032348632812,0.05535006523132324,0.07374340295791626
1712257099245889500,5.4778896484375,0.008469581604003906,0.04179573059082031,0.03284326195716858
1712257099255896300,5.487896240234375,-0.20603275299072266,0.015345335006713867,-0.05742979049682617
1712257099265903000,5.497903076171875,-0.38017749786376953,-0.04111886024475098,-0.06901746988296509
1712257099275910000,5.507909912109375,-0.4915323257446289,-0.036177873611450195,-0.046399861574172974
1712257099285916700,5.517916748046875,-0.49417781829833984,0.006165266036987305,-0.029161036014556885
1712257099295923500,5.52792333984375,-0.3000164031982422,0.060660600662231445,0.023110300302505493
1712257099305930200,5.53793017578125,-0.09985160827636719,0.05388927459716797,0.14317557215690613
1712257099315936800,5.547936767578125,0.026823043823242188,0.045880794525146484,0.2228338122367859
1712257099325943600,5.557943603515625,0.06252193450927734,0.08333611488342285,0.1498430073261261
1712257099335950300,5.567950439453125,0.1076650619506836,0.11843061447143555,0.053230077028274536
1712257099345957000,5.57795703125,0.09140396118164062,0.09473633766174316,-0.01850205659866333
1712257099355964000,5.5879638671875,0.02868366241455078,0.027788639068603516,-0.0503232479095459
1712257099365970700,5.597970703125,-0.06597232818603516,-0.019282817840576172,-0.06656613945960999
1712257099375977500,5.6079775390625,-0.13124942779541016,-0.03600430488586426,-0.04423713684082031
1712257099385984300,5.617984375,-0.13954639434814453,-0.008265972137451172,-0.05921846628189087
1712257099395991000,5.627990966796875,-0.08234786987304688,0.016124725341796875,-0.05539208650588989
1712257099405997800,5.637997802734375,-0.012366294860839844,0.027386188507080078,0.003804802894592285
1712257099416004600,5.648004638671875,0.06085681915283203,0.07240772247314453,0.03834375739097595
1712257099426011400,5.658011474609375,0.12334251403808594,0.12629127502441406,0.04026156663894653
1712257099436018200,5.66801806640625,0.15185928344726562,0.1083221435546875,0.08601787686347961
1712257099446025000,5.67802490234375,0.14234161376953125,0.08529353141784668,0.12827667593955994
1712257099456031700,5.68803173828125,0.2933034896850586,0.07601475715637207,0.12301173806190491
1712257099466038500,5.69803857421875,0.5321550369262695,0.05916094779968262,0.11800175905227661
1712257099476045300,5.70804541015625,0.5141611099243164,-0.018794775009155273,0.09677687287330627
1712257099486052400,5.71805224609375,0.3233795166015625,-0.0380856990814209,-0.035587966442108154
1712257099496059100,5.72805908203125,0.10803604125976562,-0.039728403091430664,-0.18049779534339905
1712257099506066000,5.73806591796875,-0.12719058990478516,-0.06007862091064453,-0.19775891304016113
1712257099516072700,5.74807275390625,-0.3402252197265625,-0.06862735748291016,-0.19273898005485535
1712257099526079500,5.75807958984375,-0.43779754638671875,-0.04506516456604004,-0.17051821947097778
1712257099536086300,5.768086181640625,-0.39377403259277344,-0.01771712303161621,-0.05039280652999878
1712257099546093300,5.77809326171875,-0.2524271011352539,0.016438007354736328,0.05399921536445618
1712257099556100000,5.78810009765625,-0.04299354553222656,0.04113411903381348,0.11006706953048706
1712257099566107000,5.79810693359375,0.18701171875,0.0967264175415039,0.09931421279907227
1712257099576113700,5.80811376953125,0.3059549331665039,0.12443709373474121,0.022889822721481323
1712257099586120400,5.818120361328125,0.2732706069946289,0.08257937431335449,-0.04819026589393616
1712257099596127200,5.828127197265625,0.10999393463134766,-0.0031991004943847656,-0.10391685366630554
1712257099606134000,5.838134033203125,-0.07413768768310547,-0.08287596702575684,-0.12006962299346924
1712257099616141000,5.84814111328125,-0.1897573471069336,-0.08896875381469727,-0.10843625664710999
1712257099626147800,5.85814794921875,-0.21935272216796875,-0.05977439880371094,-0.10730895400047302
1712257099636154600,5.868154541015625,-0.19259166717529297,-0.010036230087280273,-0.03196436166763306
1712257099646161400,5.878161376953125,-0.07257747650146484,0.045257568359375,0.059847503900527954
1712257099656168200,5.888168212890625,0.07356929779052734,0.10940361022949219,0.13615337014198303
1712257099666175000,5.898175048828125,0.17517948150634766,0.12424349784851074,0.15181565284729004
1712257099676182000,5.90818212890625,0.1578197479248047,0.10882687568664551,0.16012632846832275
1712257099686188800,5.918188720703125,0.14564990997314453,0.12095236778259277,0.09054985642433167
1712257099696195600,5.928195556640625,0.1903209686279297,0.10398745536804199,0.04236108064651489
1712257099706202400,5.938202392578125,0.23441028594970703,0.039536237716674805,0.04321444034576416
1712257099716209200,5.948209228515625,0.1792163848876953,-0.020480632781982422,0.022592872381210327
1712257099726216000,5.9582158203125,0.0639495849609375,-0.051910400390625,0.011678427457809448
1712257099736222700,5.96822265625,0.030706405639648438,-0.011948347091674805,-0.04888167977333069
1712257099746229800,5.978229736328125,0.03104686737060547,-0.0008449554443359375,-0.016142219305038452
1712257099756236500,5.988236572265625,-0.015542030334472656,-0.018644094467163086,0.044017940759658813
1712257099766243300,5.998243408203125,-0.12240219116210938,-0.013113021850585938,0.05611526966094971
1712257099776250000,6.00825,-0.27945709228515625,0.0070226192474365234,0.025690346956253052
1712257099786257000,6.0182568359375,-0.392181396484375,-0.008593320846557617,-0.061819255352020264
1712257099796263700,6.028263671875,-0.45200252532958984,-0.02138233184814453,-0.14420905709266663
1712257099806270500,6.0382705078125,-0.4314098358154297,-0.04127001762390137,-0.22612856328487396
1712257099816277500,6.048277587890625,-0.3692312240600586,-0.08736872673034668,-0.1770198941230774
1712257099826284300,6.0582841796875,-0.23769855499267578,-0.07980203628540039,-0.07947602868080139
1712257099836291000,6.068291015625,-0.056484222412109375,-0.006356716156005859,-0.00465238094329834
1712257099846297900,6.0782978515625,0.1126699447631836,0.027172565460205078,0.04902580380439758
1712257099856304600,6.0883046875,0.1994476318359375,0.03488469123840332,0.08900293707847595
1712257099866311400,6.0983115234375,0.15798282623291016,0.03154754638671875,0.037301450967788696
1712257099876318500,6.108318359375,0.14554309844970703,0.06524276733398438,-0.07648193836212158
1712257099886325200,6.1183251953125,0.17093563079833984,0.09859180450439453,-0.15592563152313232
1712257099896332000,6.12833203125,0.22878646850585938,0.056485891342163086,-0.19296014308929443
1712257099906338800,6.1383388671875,0.2574605941772461,-0.032137393951416016,-0.1445639729499817
1712257099916345600,6.148345703125,0.2809000015258789,-0.043879032135009766,-0.06339490413665771
1712257099926352400,6.158352294921875,0.31337833404541016,-0.008481740951538086,0.05009523034095764
1712257099936359200,6.168359130859375,0.34560203552246094,0.01582169532775879,0.1581992208957672
1712257099946366000,6.178365966796875,0.3118295669555664,0.07094693183898926,0.2144884169101715
1712257099956372700,6.188372802734375,0.23206615447998047,0.11840510368347168,0.15917053818702698
1712257099966379500,6.198379638671875,0.08355903625488281,0.1396045684814453,0.06823599338531494
1712257099976386000,6.208385986328125,-0.10922050476074219,0.10292625427246094,0.03507494926452637
1712257099986392800,6.218392822265625,-0.24219036102294922,0.052611351013183594,0.010786950588226318
1712257099996399600,6.228399658203125,-0.30710887908935547,0.022556543350219727,-0.02462083101272583
1712257100006406400,6.238406494140625,-0.35706043243408203,-0.034148216247558594,-0.05708906054496765
1712257100016413200,6.2484130859375,-0.3735942840576172,-0.0743708610534668,-0.08119463920593262
1712257100026420000,6.258419921875,-0.38553905487060547,-0.10308432579040527,-0.07323268055915833
1712257100036426800,6.2684267578125,-0.37903308868408203,-0.10097241401672363,-0.034330397844314575
1712257100046433500,6.27843359375,-0.33080577850341797,-0.07335782051086426,-0.035629868507385254
1712257100056440300,6.2884404296875,-0.2556629180908203,-0.03981375694274902,-0.008549392223358154
1712257100066447000,6.298447021484375,-0.1585836410522461,0.017784833908081055,-0.005005568265914917
1712257100076454000,6.308453857421875,-0.020972251892089844,0.056351661682128906,-0.03461840748786926
1712257100086460700,6.318460693359375,0.12852954864501953,0.07521843910217285,-0.06806427240371704
1712257100096467500,6.328467529296875,0.2571086883544922,0.06423163414001465,-0.12430649995803833
1712257100106474200,6.33847412109375,0.30872058868408203,0.01412057876586914,-0.16067087650299072
1712257100116481000,6.34848095703125,0.26099395751953125,-0.06019783020019531,-0.14784449338912964
1712257100126487800,6.35848779296875,0.1765308380126953,-0.07268691062927246,-0.10574248433113098
1712257100136494600,6.36849462890625,0.10284042358398438,-0.05648612976074219,0.03883439302444458
1712257100146501400,6.37850146484375,0.09132003784179688,0.02143073081970215,0.14391791820526123
1712257100156508200,6.388508056640625,0.19767189025878906,0.10753822326660156,0.1910305917263031
1712257100166514700,6.3985146484375,0.25078296661376953,0.16271233558654785,0.19158899784088135
1712257100176521500,6.408521484375,0.2140359878540039,0.18697810173034668,0.15555909276008606
1712257100186528300,6.4185283203125,0.21613693237304688,0.1996932029724121,0.08672136068344116
1712257100196535000,6.42853515625,0.19524574279785156,0.1396496295928955,0.05707734823226929
1712257100206541800,6.438541748046875,0.07135868072509766,0.01848745346069336,0.02884089946746826
1712257100216548600,6.448548583984375,-0.04593467712402344,-0.0720827579498291,0.012111127376556396
1712257100226555400,6.458555419921875,-0.156890869140625,-0.09910750389099121,0.020560860633850098
1712257100236562200,6.468562255859375,-0.2382059097290039,-0.05827760696411133,0.028738677501678467
1712257100246569000,6.47856884765625,-0.2857370376586914,-0.002046823501586914,0.002041846513748169
1712257100256575700,6.48857568359375,-0.29532623291015625,0.04097628593444824,-0.04913589358329773
1712257100266582500,6.49858251953125,-0.2629203796386719,0.05210161209106445,-0.12345969676971436
1712257100276589300,6.50858935546875,-0.1937103271484375,0.007657289505004883,-0.1359759271144867
1712257100286596000,6.51859619140625,-0.059760093688964844,-0.03110361099243164,-0.14922061562538147
1712257100296603000,6.528602783203125,0.09590625762939453,-0.05613517761230469,-0.07430729269981384
1712257100306609700,6.538609619140625,0.1790752410888672,-0.05475783348083496,0.04624682664871216
1712257100316616400,6.548616455078125,0.15795135498046875,-0.05098462104797363,0.09503689408302307
1712257100326623200,6.558623291015625,0.03393077850341797,-0.0014073848724365234,0.07803013920783997
1712257100336630000,6.568630126953125,-0.13060665130615234,0.03377866744995117,0.03834393620491028
1712257100346636800,6.57863671875,-0.2036123275756836,0.07524514198303223,-0.05264049768447876
1712257100356643300,6.588643310546875,-0.1678447723388672,0.08092689514160156,-0.1389000415802002
1712257100366650000,6.598650146484375,-0.005916595458984375,0.04557037353515625,-0.17818820476531982
1712257100376657000,6.608656982421875,0.16755199432373047,-0.012984275817871094,-0.08568504452705383
1712257100386663700,6.61866357421875,0.26331520080566406,-0.03473973274230957,0.025361686944961548
1712257100396670500,6.62867041015625,0.2640237808227539,0.007212162017822266,0.09417212009429932
1712257100406677200,6.63867724609375,0.17101287841796875,0.03733491897583008,0.11627674102783203
1712257100416684000,6.64868408203125,0.05128765106201172,0.047873735427856445,0.13509130477905273
1712257100426690800,6.65869091796875,-0.0667266845703125,0.06810545921325684,0.1658172607421875
1712257100436697600,6.668697509765625,-0.1267566680908203,0.07992053031921387,0.10780069231987
1712257100446704400,6.678704345703125,-0.11559009552001953,0.07425403594970703,0.06375324726104736
1712257100456711200,6.688711181640625,-0.048274993896484375,0.055338382720947266,0.018896937370300293
1712257100466718000,6.698718017578125,0.06046581268310547,0.04596877098083496,-0.01802077889442444
1712257100476724700,6.708724853515625,0.06413078308105469,-0.015914440155029297,-0.041144996881484985
1712257100486731500,6.7187314453125,-0.007254600524902344,-0.04956221580505371,-0.11128678917884827
1712257100496738600,6.728738525390625,-0.11037921905517578,-0.0827035903930664,-0.14758053421974182
1712257100506745300,6.738745361328125,-0.2214984893798828,-0.08609724044799805,-0.15509739518165588
1712257100516752100,6.748752197265625,-0.24176311492919922,-0.059767961502075195,-0.11516079306602478
1712257100526759000,6.758759033203125,-0.19612598419189453,-0.03278303146362305,-0.0003504157066345215
1712257100536765700,6.768765625,-0.1373462677001953,-0.015011787414550781,0.09873759746551514
1712257100546772500,6.7787724609375,-0.055953025817871094,0.030656814575195312,0.12022817134857178
1712257100556779500,6.788779541015625,-0.018100738525390625,0.06570053100585938,0.0791155993938446
1712257100566786300,6.798786376953125,0.04766273498535156,0.0712897777557373,0.03210309147834778
1712257100576793000,6.80879296875,0.15515804290771484,0.08049178123474121,-0.02616998553276062
1712257100586799900,6.8187998046875,0.22837066650390625,0.050691843032836914,-0.07582494616508484
1712257100596806700,6.828806640625,0.22063922882080078,0.010748624801635742,-0.12332579493522644
1712257100606813400,6.8388134765625,0.1471881866455078,-0.029140472412109375,-0.12056607007980347
1712257100616820200,6.8488203125,0.07471370697021484,-0.03495526313781738,-0.10641792416572571
1712257100626827300,6.8588271484375,0.040749549865722656,0.03538846969604492,-0.04749405384063721
1712257100636834000,6.868833984375,0.030518531799316406,0.05825495719909668,0.06473234295845032
1712257100646840800,6.8788408203125,0.034259796142578125,0.08148574829101562,0.12972736358642578
1712257100656847600,6.88884765625,0.06615543365478516,0.08082866668701172,0.17524641752243042
1712257100666854400,6.8988544921875,0.09312152862548828,0.0746161937713623,0.19572019577026367
1712257100676861200,6.908861083984375,0.07303237915039062,0.07196474075317383,0.10121726989746094
1712257100686868000,6.918867919921875,0.0018796920776367188,0.07316040992736816,-0.022100359201431274
1712257100696875000,6.928875,-0.02079010009765625,0.012770652770996094,-0.11232486367225647
1712257100706881800,6.9388818359375,-0.038268089294433594,-0.05625438690185547,-0.16871976852416992
1712257100716888600,6.948888671875,-0.05536937713623047,-0.08677339553833008,-0.15796813368797302
1712257100726895400,6.958895263671875,-0.11464786529541016,-0.08366012573242188,-0.11846956610679626
1712257100736902100,6.968902099609375,-0.15909385681152344,-0.06095242500305176,-0.022693336009979248
1712257100746909000,6.978908935546875,-0.14185237884521484,-0.00019168853759765625,0.0813550055027008
1712257100756916000,6.988916015625,-0.16756343841552734,0.02271294593811035,0.16530901193618774
1712257100766922800,6.9989228515625,-0.19324588775634766,0.06065797805786133,0.16282466053962708
1712257100776929500,7.008929443359375,-0.19065284729003906,0.08515405654907227,0.11772462725639343
1712257100786936300,7.018936279296875,-0.12732505798339844,0.10125112533569336,-0.002366364002227783
1712257100796943000,7.028943115234375,-0.008711814880371094,0.07068562507629395,-0.11685886979103088
1712257100806950000,7.038949951171875,0.11758136749267578,-0.016505002975463867,-0.13130056858062744
1712257100816956700,7.048956787109375,0.18098163604736328,-0.07059526443481445,-0.10320597887039185
1712257100826963700,7.058963623046875,0.1873760223388672,-0.07379484176635742,-0.11754670739173889
1712257100836970500,7.068970458984375,0.13753128051757812,-0.035697221755981445,-0.04236826300621033
1712257100846977300,7.078977294921875,0.0698699951171875,0.029535770416259766,0.05915603041648865
1712257100856984000,7.088984130859375,0.007925987243652344,0.07049703598022461,0.10260510444641113
1712257100866990800,7.098990966796875,-0.0014667510986328125,0.0550079345703125,0.16967695951461792
1712257100876997600,7.10899755859375,-0.034531593322753906,0.035611629486083984,0.16715142130851746
1712257100887004700,7.119004638671875,-0.034366607666015625,0.06897473335266113,0.06254002451896667
1712257100897011200,7.12901123046875,-0.010624885559082031,0.08755731582641602,-0.054551929235458374
1712257100907018000,7.13901806640625,-0.010644912719726562,0.04895472526550293,-0.10958874225616455
1712257100917024800,7.149024658203125,-0.05279731750488281,0.005723237991333008,-0.10373431444168091
1712257100927031600,7.159031494140625,-0.09405899047851562,-0.027836084365844727,-0.07988926768302917
1712257100937038300,7.169038330078125,-0.11093807220458984,-0.03286886215209961,-0.062293559312820435
1712257100947045000,7.179045166015625,-0.1228179931640625,-0.037714242935180664,-0.06935083866119385
1712257100957052000,7.189052001953125,-0.1299419403076172,-0.037180423736572266,-0.058142781257629395
1712257100967058700,7.19905859375,-0.12305927276611328,-0.016931772232055664,-0.05264601111412048
1712257100977065500,7.2090654296875,-0.08360958099365234,-0.010257244110107422,-0.02372807264328003
1712257100987072300,7.219072265625,-0.04031181335449219,0.010933876037597656,0.0055297017097473145
1712257100997079000,7.2290791015625,0.02100658416748047,0.041385650634765625,-0.021614134311676025
1712257101007085800,7.2390859375,0.07660579681396484,0.028855085372924805,0.01329880952835083
1712257101017092600,7.249092529296875,0.08889389038085938,0.02104640007019043,0.011237263679504395
1712257101027099400,7.259099365234375,0.07750797271728516,0.031711578369140625,-0.01756840944290161
1712257101037106200,7.269106201171875,0.04740333557128906,0.018759727478027344,-0.012179017066955566
1712257101047113000,7.279113037109375,0.017808914184570312,-0.008199930191040039,0.0029311776161193848
1712257101057119700,7.28911962890625,-0.020857810974121094,-0.020087480545043945,0.03178614377975464
1712257101067126500,7.29912646484375,0.05403614044189453,-0.0030503273010253906,0.096743643283844
1712257101077133300,7.30913330078125,0.13730716705322266,0.04133772850036621,0.07562637329101562
1712257101087139800,7.319139892578125,0.13491153717041016,0.04573416709899902,0.008230388164520264
1712257101097146600,7.329146728515625,0.0529632568359375,0.03467559814453125,-0.030800223350524902
1712257101107153400,7.3391533203125,-0.05105781555175781,0.028231143951416016,-0.017675936222076416
1712257101117160200,7.34916015625,-0.10171127319335938,0.031819820404052734,-0.02359980344772339
1712257101127167000,7.3591669921875,-0.09993267059326172,0.021928071975708008,0.0032453536987304688
1712257101137173800,7.369173828125,-0.06540489196777344,0.003362894058227539,0.08140188455581665
1712257101147180500,7.3791806640625,-0.0032796859741210938,0.03235650062561035,0.12577742338180542
1712257101157187300,7.389187255859375,0.043677330017089844,0.07013535499572754,0.08562660217285156
1712257101167194000,7.399194091796875,0.08045101165771484,0.0978398323059082,-0.015205919742584229
1712257101177201000,7.409200927734375,0.07906246185302734,0.0681912899017334,-0.08133068680763245
1712257101187207700,7.419207763671875,0.044757843017578125,0.01052999496459961,-0.11704176664352417
1712257101197214500,7.42921435546875,0.053485870361328125,-0.022801637649536133,-0.08204653859138489
1712257101207221200,7.43922119140625,0.09522438049316406,-0.027806520462036133,-0.03425943851470947
1712257101217228000,7.44922802734375,0.06114768981933594,-0.03832197189331055,0.04206448793411255
1712257101227234800,7.45923486328125,0.00885009765625,-0.02073359489440918,0.06165415048599243
1712257101237241600,7.46924169921875,-0.05675506591796875,0.024889230728149414,0.010806381702423096
1712257101247248400,7.479248291015625,-0.11198997497558594,0.051409244537353516,-0.06774082779884338
1712257101257255200,7.489255126953125,-0.14301013946533203,0.05033421516418457,-0.10436677932739258
1712257101267262000,7.499261962890625,-0.12192726135253906,0.007828235626220703,-0.11365830898284912
1712257101277268700,7.509268798828125,-0.08237934112548828,-0.05728268623352051,-0.08139076828956604
1712257101287275300,7.519275146484375,-0.07173538208007812,-0.06949162483215332,-0.049883484840393066
1712257101297282000,7.529281982421875,-0.061359405517578125,-0.048334360122680664,-0.051400840282440186
1712257101307288800,7.539288818359375,-0.07484245300292969,-0.013092279434204102,-0.06622746586799622
1712257101317295600,7.549295654296875,-0.05071449279785156,0.036490440368652344,-0.04264158010482788
1712257101327302400,7.559302490234375,-0.013115882873535156,0.052881479263305664,-0.008883476257324219
1712257101337309200,7.56930908203125,0.06622886657714844,0.05486273765563965,0.0009301304817199707
1712257101347316000,7.57931591796875,0.16810894012451172,0.037180185317993164,0.0518413782119751
1712257101357322800,7.58932275390625,0.17922496795654297,0.02310347557067871,0.07446491718292236
1712257101367329500,7.59932958984375,0.14333820343017578,0.03191423416137695,0.03572756052017212
1712257101377336300,7.60933642578125,0.1554737091064453,0.07249879837036133,0.07279247045516968
1712257101387343000,7.619343017578125,0.05019855499267578,0.05947995185852051,-0.020465075969696045
1712257101397350000,7.629349853515625,0.007659912109375,0.0048906803131103516,0.0016247034072875977
1712257101407356700,7.639356689453125,-0.015372276306152344,0.01719069480895996,-0.061091721057891846
1712257101417363500,7.649363525390625,-0.10437774658203125,-0.04029726982116699,-0.1680280566215515
1712257101427370200,7.659370361328125,-0.15949058532714844,-0.09075069427490234,-0.12044930458068848
1712257101437377000,7.669376953125,-0.14828872680664062,-0.06828689575195312,-0.08662143349647522
1712257101447383800,7.6793837890625,-0.10453319549560547,0.010931730270385742,-0.01992642879486084
1712257101457390600,7.689390625,-0.07575035095214844,0.06566739082336426,0.09270775318145752
1712257101467397400,7.6993974609375,-0.042923927307128906,0.10580134391784668,0.12902843952178955
1712257101477404000,7.70940380859375,0.04577827453613281,0.11255168914794922,0.11774152517318726
1712257101487410700,7.71941064453125,0.1379108428955078,0.0620427131652832,0.09734088182449341
1712257101497417500,7.72941748046875,0.17711830139160156,0.02509331703186035,0.04509842395782471
1712257101507424300,7.73942431640625,0.13616180419921875,-0.027048587799072266,-0.020433157682418823
1712257101517431000,7.74943115234375,0.04442787170410156,-0.06975913047790527,-0.08604127168655396
1712257101527437800,7.759437744140625,-0.06448936462402344,-0.07416224479675293,-0.10529771447181702
1712257101537444600,7.769444580078125,-0.10580062866210938,-0.021352767944335938,-0.054966121912002563
1712257101547451600,7.77945166015625,-0.0995473861694336,0.012357711791992188,0.0466579794883728
1712257101557458400,7.78945849609375,-0.041716575622558594,0.06932878494262695,0.1235315203666687
1712257101567465200,7.79946533203125,0.053035736083984375,0.09647297859191895,0.11870405077934265
1712257101577472000,7.809471923828125,0.1184835433959961,0.0933237075805664,0.04753923416137695
1712257101587478800,7.819478759765625,0.1269989013671875,0.04606795310974121,0.0039058923721313477
1712257101597485600,7.829485595703125,0.03215217590332031,-0.001379251480102539,0.0022629499435424805
1712257101607492400,7.839492431640625,-0.07528400421142578,-0.01965951919555664,-0.032173871994018555
1712257101617499400,7.84949951171875,-0.16725444793701172,-0.01739645004272461,-0.03293773531913757
1712257101627506200,7.859506103515625,-0.24900245666503906,-0.0035893917083740234,0.009474992752075195
1712257101637513000,7.869512939453125,-0.2974853515625,0.003607511520385742,0.057721346616744995
1712257101647519700,7.879519775390625,-0.2425975799560547,0.04193472862243652,0.11604025959968567
1712257101657526500,7.889526611328125,-0.1516551971435547,0.05327916145324707,0.16117528080940247
1712257101667533300,7.899533203125,-0.10021305084228516,0.04162192344665527,0.0755322277545929
1712257101677540400,7.909540283203125,-0.1107635498046875,0.015832901000976562,-0.032293617725372314
1712257101687547100,7.919547119140625,-0.15412616729736328,0.018938541412353516,-0.10594639182090759
1712257101697554000,7.929553955078125,-0.2204885482788086,0.008697509765625,-0.1185181736946106
1712257101707560700,7.939560791015625,-0.22496509552001953,0.0002465248107910156,-0.06624948978424072
1712257101717567500,7.9495673828125,-0.09311676025390625,-0.0021619796752929688,0.04518842697143555
1712257101727574300,7.95957421875,0.0555572509765625,0.004439115524291992,0.16347238421440125
1712257101737581000,7.9695810546875,0.16927433013916016,0.023510456085205078,0.1905125379562378
1712257101747588000,7.979588134765625,0.24402904510498047,0.016785621643066406,0.18420103192329407
1712257101757595000,7.989594970703125,0.26160335540771484,0.0412290096282959,0.1219281554222107
1712257101767601700,7.9996015625,0.2557506561279297,0.07812809944152832,-0.03386580944061279
