time,seconds_elapsed,z,y,x
1712257266906173000,0.0551728515625,-0.05388641357421875,0.009200811386108398,0.0020003914833068848
1712257266916173600,0.065173583984375,-0.19414424896240234,0.031435251235961914,-0.01677173376083374
1712257266926174700,0.0751748046875,-0.14477920532226562,0.01088094711303711,-0.04666554927825928
1712257266936177200,0.08517724609375,-0.1846609115600586,-0.010721921920776367,-0.06817829608917236
1712257266946180000,0.09518017578125,0.0533599853515625,0.003843545913696289,-0.14143064618110657
1712257266956184300,0.105184326171875,0.12371158599853516,-0.04581403732299805,-0.29030564427375793
1712257266966189600,0.115189453125,-0.029850006103515625,-0.04879164695739746,-0.30936399102211
1712257266976195800,0.12519580078125,-0.11594200134277344,-0.030301809310913086,-0.22571784257888794
1712257266986203400,0.135203369140625,-0.1519765853881836,0.003704547882080078,-0.15747611224651337
1712257266996211700,0.145211669921875,-0.3346729278564453,0.0051457881927490234,-0.09189936518669128
1712257267006220800,0.155220703125,-0.44878482818603516,0.026370763778686523,-0.013998806476593018
1712257267016230700,0.165230712890625,-0.4745292663574219,0.027159929275512695,0.04632750153541565
1712257267026241000,0.175240966796875,-0.36002349853515625,-0.018268823623657227,-0.002615898847579956
1712257267036251600,0.185251708984375,-0.24663448333740234,-0.07279157638549805,-0.07816872000694275
1712257267046262500,0.195262451171875,-0.09684181213378906,-0.10110807418823242,-0.02654251456260681
1712257267056272600,0.205272705078125,0.0799093246459961,-0.04709982872009277,-0.006073713302612305
1712257267066279000,0.21527880859375,0.20693683624267578,-0.04263448715209961,-0.056120455265045166
1712257267076285000,0.225284912109375,0.27881336212158203,0.0003123283386230469,-0.0819958746433258
1712257267086291200,0.235291259765625,0.26215553283691406,0.02564239501953125,-0.10751639306545258
1712257267096297500,0.24529736328125,0.28850269317626953,0.030408859252929688,-0.13845661282539368
1712257267106303700,0.2553037109375,0.3241243362426758,0.024135589599609375,-0.10506942868232727
1712257267116310000,0.26531005859375,0.23578548431396484,0.07604050636291504,-0.04025194048881531
1712257267126316300,0.27531640625,0.050660133361816406,0.08432507514953613,-0.03134709596633911
1712257267136322600,0.285322509765625,-0.10004901885986328,0.06193256378173828,-0.058300554752349854
1712257267146328800,0.295328857421875,-0.15846824645996094,0.02433300018310547,-0.09319470822811127
1712257267156335000,0.305335205078125,-0.11431598663330078,-0.014188766479492188,-0.05820874869823456
1712257267166341400,0.31534130859375,0.1031484603881836,0.005289316177368164,-0.04365941882133484
1712257267176347600,0.32534765625,0.23474502563476562,0.0009152889251708984,-0.11457200348377228
1712257267186354000,0.33535400390625,0.37199974060058594,0.055757999420166016,-0.13533155620098114
1712257267196360000,0.34535986328125,0.3161172866821289,0.08348703384399414,-0.11567230522632599
1712257267206366200,0.3553662109375,0.2536897659301758,0.09474015235900879,-0.018356531858444214
1712257267216372500,0.36537255859375,0.04985809326171875,0.12791800498962402,-0.02222350239753723
1712257267226378800,0.375378662109375,-0.3481893539428711,0.0964517593383789,-0.12957775592803955
1712257267236385000,0.385385009765625,-0.37377071380615234,0.046661376953125,0.036436378955841064
1712257267246391300,0.395391357421875,-0.12989330291748047,-0.03172564506530762,0.1064009964466095
1712257267256397600,0.4053974609375,0.13992595672607422,-0.08008170127868652,0.034899502992630005
1712257267266403800,0.41540380859375,0.4270153045654297,-0.06453633308410645,-0.09134179353713989
1712257267276410000,0.42541015625,0.5499887466430664,-0.03507518768310547,-0.14597125351428986
1712257267286416400,0.43541650390625,0.39633846282958984,0.012651443481445312,-0.10187837481498718
1712257267296422700,0.445422607421875,0.05585289001464844,0.047760009765625,0.0075965821743011475
1712257267306429000,0.455428955078125,-0.25827980041503906,0.09257340431213379,0.027842432260513306
1712257267316435000,0.46543505859375,-0.39337158203125,0.11610054969787598,0.14362317323684692
1712257267326441200,0.475441162109375,-0.2929677963256836,0.10056924819946289,0.254894882440567
1712257267336447500,0.485447509765625,-0.02721405029296875,0.06408381462097168,0.2401457130908966
1712257267346453800,0.495453857421875,0.44378185272216797,-0.0615849494934082,0.08861297369003296
1712257267356460000,0.5054599609375,1.0991058349609375,-0.15790534019470215,-0.05524998903274536
1712257267366466300,0.51546630859375,0.2533903121948242,-0.15772104263305664,-0.37249523401260376
1712257267376472600,0.52547265625,-0.05309581756591797,-0.17447209358215332,-0.12208409607410431
1712257267386478800,0.535478759765625,-0.4479513168334961,-0.07130622863769531,-0.27198871970176697
1712257267396485000,0.545485107421875,-0.49420642852783203,0.04396939277648926,-0.18450096249580383
1712257267406491400,0.555491455078125,-0.4945068359375,0.06785941123962402,-0.06445944309234619
1712257267416497700,0.56549755859375,-0.32761287689208984,0.0256500244140625,0.05558386445045471
1712257267426503700,0.575503662109375,-0.023965835571289062,0.033989667892456055,0.05812162160873413
1712257267436510000,0.585510009765625,0.2224435806274414,0.05148649215698242,-0.05080339312553406
1712257267446516200,0.59551611328125,0.2722291946411133,0.04384875297546387,-0.12183995544910431
1712257267456522500,0.6055224609375,0.23705291748046875,0.035141944885253906,-0.11411076784133911
1712257267466528800,0.61552880859375,0.22651290893554688,0.05389070510864258,-0.03921885788440704
1712257267476535000,0.62553515625,0.10375308990478516,0.024028778076171875,-0.024639546871185303
1712257267486541300,0.635541259765625,-0.054332733154296875,0.03157162666320801,0.04157721996307373
1712257267496547600,0.645547607421875,-0.1865062713623047,0.049071311950683594,0.0467531681060791
1712257267506553900,0.655553955078125,-0.2604808807373047,0.053389549255371094,0.01684996485710144
1712257267516560100,0.66556005859375,-0.2583036422729492,0.0021753311157226562,-0.029430627822875977
1712257267526566100,0.675566162109375,-0.19043540954589844,-0.02416849136352539,-0.05970677733421326
1712257267536572400,0.685572509765625,-0.05777740478515625,-0.017125368118286133,-0.09385927021503448
1712257267546578700,0.69557861328125,0.12491130828857422,-0.02548694610595703,-0.11003920435905457
1712257267556584700,0.705584716796875,0.2537422180175781,-0.027002811431884766,-0.10884091258049011
1712257267566591000,0.715591064453125,0.26848888397216797,-0.059845685958862305,-0.018497079610824585
1712257267576597200,0.72559716796875,0.2460479736328125,-0.09917593002319336,0.10557225346565247
1712257267586603300,0.735603271484375,0.08299732208251953,-0.035246849060058594,0.1120079755783081
1712257267596609500,0.745609619140625,-0.12017440795898438,0.06653642654418945,0.058300524950027466
1712257267606615800,0.75561572265625,-0.30698299407958984,0.10871171951293945,-0.021978840231895447
1712257267616622000,0.7656220703125,-0.34151172637939453,0.10277152061462402,-0.06279703974723816
1712257267626628000,0.775628173828125,-0.16468429565429688,0.0813140869140625,-0.08835771679878235
1712257267636634400,0.78563427734375,0.05600929260253906,0.028138160705566406,-0.08108669519424438
1712257267646640600,0.795640625,0.2264108657836914,-0.006577014923095703,-0.0751386284828186
1712257267656646700,0.805646728515625,0.33834171295166016,0.013455629348754883,-0.14268171787261963
1712257267666653000,0.81565283203125,0.36949634552001953,0.025341033935546875,-0.15582038462162018
1712257267676659200,0.8256591796875,0.28824710845947266,0.005568027496337891,-0.04778607189655304
1712257267686665500,0.83566552734375,0.09581470489501953,0.008208274841308594,0.03587976098060608
1712257267696671500,0.84567138671875,-0.08418464660644531,0.020708084106445312,0.08149291574954987
1712257267706677800,0.855677734375,-0.17692089080810547,0.029647350311279297,0.08530692756175995
1712257267716684000,0.86568408203125,-0.1982898712158203,0.02183365821838379,0.06760253012180328
1712257267726690000,0.87568994140625,-0.22020244598388672,0.02149176597595215,-0.04352256655693054
1712257267736696300,0.8856962890625,-0.13413429260253906,0.027927637100219727,-0.10145984590053558
1712257267746702600,0.89570263671875,-0.040299415588378906,0.01610851287841797,-0.026916980743408203
1712257267756708900,0.905708984375,-0.051644325256347656,0.01870417594909668,-0.014729529619216919
1712257267766715000,0.91571484375,-0.029850006103515625,0.06844162940979004,-0.04580673575401306
1712257267776721200,0.92572119140625,0.03417015075683594,0.05085468292236328,-0.03921888768672943
1712257267786727400,0.9357275390625,0.06929683685302734,-0.014789819717407227,0.03792095184326172
1712257267796733700,0.945733642578125,0.11850261688232422,-0.04332542419433594,0.03912286460399628
1712257267806740000,0.955739990234375,0.09670734405517578,-0.04920196533203125,0.007606789469718933
1712257267816746200,0.965746337890625,0.052033424377441406,-0.06526637077331543,-0.01913052797317505
1712257267826752500,0.97575244140625,0.003429412841796875,-0.024653196334838867,-0.007817581295967102
1712257267836758800,0.9857587890625,-0.03050518035888672,0.034993886947631836,-0.035373494029045105
1712257267846765000,0.99576513671875,0.03946685791015625,0.09452128410339355,-0.05010706186294556
1712257267856771000,1.00577099609375,0.18372154235839844,0.11037731170654297,0.0008672326803207397
1712257267866777300,1.01577734375,0.23655986785888672,0.09162068367004395,0.02309662103652954
1712257267876783600,1.02578369140625,0.1947774887084961,0.0953371524810791,0.013038620352745056
1712257267886790000,1.035789794921875,0.12573909759521484,0.08858275413513184,0.013805821537971497
1712257267896796200,1.045796142578125,0.025003433227539062,0.029749631881713867,-0.017550170421600342
1712257267906802400,1.055802490234375,-0.07413768768310547,-0.027908802032470703,-0.06159406900405884
1712257267916808700,1.06580859375,-0.11531925201416016,-0.06988739967346191,-0.08603660017251968
1712257267926815000,1.07581494140625,-0.12772846221923828,-0.06358718872070312,-0.08165714889764786
1712257267936821200,1.0858212890625,-0.0929107666015625,-0.028853893280029297,-0.0503426194190979
1712257267946827500,1.09582763671875,-0.02104473114013672,0.005486249923706055,-0.07706775516271591
1712257267956833800,1.105833740234375,0.06841182708740234,0.04415702819824219,-0.09007156640291214
1712257267966840000,1.115840087890625,0.18015193939208984,0.048635244369506836,-0.07637161761522293
1712257267976846000,1.12584619140625,0.2999258041381836,0.07521915435791016,-0.05482184886932373
1712257267986852400,1.135852294921875,0.3383169174194336,0.07115817070007324,0.008059993386268616
1712257267996858600,1.145858642578125,0.29668235778808594,0.06510663032531738,0.08974146842956543
1712257268006865000,1.155864990234375,0.2421741485595703,0.047965049743652344,0.09626130759716034
1712257268016871200,1.16587109375,0.17026138305664062,0.015410661697387695,0.013504430651664734
1712257268026877400,1.17587744140625,0.04815959930419922,-0.00835275650024414,-0.03533729910850525
1712257268036883700,1.1858837890625,-0.1282815933227539,-0.022582054138183594,-0.03264956176280975
1712257268046890000,1.195889892578125,-0.3210115432739258,-0.011754751205444336,-0.021503016352653503
1712257268056896300,1.205896240234375,-0.3749074935913086,0.006438732147216797,-0.0347992479801178
1712257268066902500,1.215902587890625,-0.3488807678222656,-0.0055997371673583984,-0.02409672737121582
1712257268076908800,1.22590869140625,-0.22999191284179688,-0.033733367919921875,0.0014384686946868896
1712257268086915000,1.2359150390625,-0.0851125717163086,-0.013537406921386719,-0.00562693178653717
1712257268096921000,1.245921142578125,-0.018032073974609375,-0.007703542709350586,-0.016729086637496948
1712257268106927400,1.25592724609375,-0.07447528839111328,0.02147507667541504,0.04831111431121826
1712257268116933600,1.26593359375,-0.1914997100830078,0.05574655532836914,0.042259395122528076
1712257268126940000,1.27593994140625,-0.19881153106689453,0.06276392936706543,0.008382126688957214
1712257268136946200,1.2859462890625,-0.1074514389038086,0.05181455612182617,0.026862621307373047
1712257268146952400,1.295952392578125,-0.02707958221435547,0.02231311798095703,0.022142931818962097
1712257268156958700,1.305958740234375,0.038048744201660156,-0.03563213348388672,-0.0009420663118362427
1712257268166965000,1.315965087890625,0.09772300720214844,-0.08896565437316895,-0.02292691171169281
1712257268176971300,1.32597119140625,0.11430740356445312,-0.06693243980407715,-0.08659824728965759
1712257268186977500,1.3359775390625,0.1544818878173828,-0.022582054138183594,-0.12242544442415237
1712257268196983800,1.34598388671875,0.2180023193359375,0.02918386459350586,-0.09372551739215851
1712257268206989800,1.35598974609375,0.22922039031982422,0.07851314544677734,-0.057065919041633606
1712257268216996000,1.36599609375,0.2265768051147461,0.11150860786437988,-0.03926411271095276
1712257268227002400,1.37600244140625,0.224273681640625,0.10529041290283203,-0.034316644072532654
1712257268237008600,1.386008544921875,0.17523765563964844,0.09817814826965332,-0.03785406053066254
1712257268247015000,1.396014892578125,0.08482646942138672,0.05302739143371582,-0.07030212879180908
1712257268257021200,1.406021240234375,0.024138450622558594,-0.005288124084472656,-0.032822996377944946
1712257268267027500,1.41602734375,0.05850791931152344,-0.043294668197631836,0.011813968420028687
1712257268277033700,1.42603369140625,0.2716073989868164,-0.06760907173156738,0.07411503791809082
1712257268287040000,1.4360400390625,0.6094198226928711,-0.01481938362121582,0.11693818867206573
1712257268297046300,1.44604638671875,0.9202442169189453,0.030791521072387695,0.026262760162353516
1712257268307052500,1.456052490234375,0.969944953918457,0.06238675117492676,-0.15488702058792114
1712257268317058800,1.466058837890625,0.8805475234985352,0.11816930770874023,-0.1611013412475586
1712257268327064800,1.47606494140625,0.9553155899047852,0.22284555435180664,-0.20868267118930817
1712257268337071000,1.486071044921875,1.2013111114501953,0.2099471092224121,-0.1874857246875763
1712257268347077400,1.496077392578125,1.3529605865478516,0.12601637840270996,-0.025545448064804077
1712257268357083600,1.506083740234375,1.1203670501708984,-0.0003986358642578125,0.05521112680435181
1712257268367090000,1.51608984375,0.5843544006347656,-0.10907697677612305,0.04272046685218811
1712257268377096200,1.52609619140625,0.025960922241210938,-0.08679318428039551,0.21189773082733154
1712257268387102500,1.5361025390625,-0.20266056060791016,-0.13905048370361328,0.16700705885887146
1712257268397108700,1.546108642578125,-0.32886409759521484,-0.19255805015563965,-0.00957515835762024
1712257268407115000,1.556114990234375,-0.28829288482666016,-0.14409303665161133,-0.020290523767471313
1712257268417121300,1.566121337890625,-0.18212318420410156,-0.11908173561096191,-0.02249246835708618
1712257268427127600,1.57612744140625,-0.020575523376464844,-0.14602112770080566,0.01599055528640747
1712257268437133800,1.5861337890625,0.31424617767333984,-0.09960722923278809,0.021261006593704224
1712257268447139800,1.596139892578125,0.6613168716430664,-0.10264396667480469,-0.26320284605026245
1712257268457146000,1.60614599609375,0.7586765289306641,-0.16249561309814453,-0.44406402111053467
1712257268467152400,1.61615234375,0.3562755584716797,-0.28682994842529297,-0.4209951162338257
1712257268477158700,1.62615869140625,-0.18114566802978516,-0.36730289459228516,-0.21991324424743652
1712257268487165000,1.6361650390625,-0.46178531646728516,-0.28876781463623047,0.1024550199508667
1712257268497171200,1.646171142578125,-1.0532293319702148,-0.3071126937866211,0.19908654689788818
1712257268507177500,1.656177490234375,-1.399707317352295,-0.16517257690429688,0.12893444299697876
1712257268517183700,1.666183837890625,-1.3696436882019043,-0.020490169525146484,0.24185413122177124
1712257268527190000,1.67618994140625,-0.9789628982543945,-0.013419628143310547,0.28169000148773193
1712257268537196300,1.6861962890625,-0.2365398406982422,-0.0010843276977539062,0.30037325620651245
1712257268547202600,1.69620263671875,0.4695453643798828,-0.07148885726928711,0.14569932222366333
1712257268557208600,1.70620849609375,0.7272090911865234,-0.02694225311279297,0.060048818588256836
1712257268567214800,1.71621484375,0.8150243759155273,0.022814273834228516,0.0821637511253357
1712257268577221000,1.72622119140625,0.8442611694335938,0.04819202423095703,0.05419588088989258
1712257268587227400,1.736227294921875,0.9303750991821289,-0.027607440948486328,-0.09709501266479492
1712257268597233700,1.746233642578125,1.2843008041381836,-0.0009579658508300781,-0.42000994086265564
1712257268607240000,1.756239990234375,1.7745552062988281,-0.04865264892578125,-0.5727114081382751
1712257268617246200,1.76624609375,2.131829261779785,-0.12196922302246094,-0.30516213178634644
1712257268627252500,1.77625244140625,2.3731679916381836,-0.12221145629882812,0.15276485681533813
1712257268637258800,1.7862587890625,2.51589298248291,-0.34226083755493164,0.7211455702781677
1712257268647265000,1.79626513671875,1.6611933708190918,-0.4501371383666992,-0.05192756652832031
1712257268657271300,1.806271240234375,1.1696338653564453,-1.2024240493774414,0.00480276346206665
1712257268667277600,1.816277587890625,0.27388763427734375,-1.4128389358520508,-0.14894753694534302
1712257268677283600,1.82628369140625,-0.3400421142578125,-0.8089642524719238,-0.379348486661911
1712257268687289900,1.836289794921875,-0.21913909912109375,-0.4873380661010742,-0.5940716862678528
1712257268697296100,1.846296142578125,0.43387889862060547,-0.6527609825134277,-0.717923104763031
1712257268707302400,1.856302490234375,0.7627377510070801,-0.7588462829589844,-0.5504711866378784
1712257268717308700,1.86630859375,0.6425542831420898,-0.8027796745300293,-0.24127566814422607
1712257268727315000,1.87631494140625,0.3601093292236328,-0.7735881805419922,-0.07375001907348633
1712257268737321200,1.8863212890625,-0.2259211540222168,-0.8633217811584473,0.10528165102005005
1712257268747327500,1.896327392578125,-0.9684748649597168,-0.9038190841674805,0.1423337459564209
1712257268757333800,1.906333740234375,-1.6744933128356934,-0.7141122817993164,0.23420202732086182
1712257268767340000,1.916340087890625,-1.828622817993164,-0.6991720199584961,0.19469088315963745
1712257268777346300,1.92634619140625,-1.69401216506958,-0.6608209609985352,0.2855719327926636
1712257268787352600,1.9363525390625,-1.3493261337280273,-0.5745453834533691,0.40297120809555054
1712257268797358600,1.946358642578125,-0.992311954498291,-0.5434880256652832,0.22107279300689697
1712257268807364900,1.95636474609375,-0.7351975440979004,-0.5498394966125488,0.01388239860534668
1712257268817371100,1.96637109375,-0.8532161712646484,-0.5939970016479492,0.07142215967178345
1712257268827377400,1.97637744140625,-1.3671326637268066,-0.5453968048095703,0.22613000869750977
1712257268837383700,1.9863837890625,-1.6903431415557861,-0.2398853302001953,0.3851304054260254
1712257268847390000,1.996389892578125,-1.6397781372070312,-0.1219482421875,0.6524189114570618
1712257268857396200,2.006396240234375,-1.1812353134155273,-0.2118997573852539,0.4614371657371521
1712257268867402500,2.016402587890625,-0.47553491592407227,-0.3509540557861328,0.006859421730041504
1712257268877408800,2.02640869140625,-0.09377765655517578,-0.5230226516723633,-0.13997101783752441
1712257268887415000,2.0364150390625,0.08327054977416992,-0.5054655075073242,-0.18963658809661865
1712257268897421300,2.04642138671875,0.2634925842285156,-0.4858264923095703,-0.08320778608322144
1712257268907427300,2.05642724609375,0.1890110969543457,-0.3253612518310547,-0.07328742742538452
1712257268917433600,2.06643359375,-0.07787823677062988,-0.1455087661743164,-0.06936895847320557
1712257268927440000,2.07643994140625,-0.5383415222167969,-0.11977100372314453,-0.08169811964035034
1712257268937446100,2.086446044921875,-0.807365894317627,-0.21856975555419922,0.21749931573867798
1712257268947452400,2.096452392578125,-0.8811511993408203,-0.23214340209960938,0.4439616799354553
1712257268957458700,2.106458740234375,-0.980597734451294,-0.19435596466064453,0.2706831097602844
1712257268967465000,2.11646484375,-0.9630675315856934,-0.1292104721069336,0.1879768967628479
1712257268977471200,2.12647119140625,-0.791372537612915,-0.04162120819091797,0.14128601551055908
1712257268987477500,2.1364775390625,-0.6097831726074219,-0.04597759246826172,-0.2439725697040558
1712257268997483800,2.14648388671875,-0.5467574596405029,-0.09905052185058594,-0.5368527770042419
1712257269007490000,2.156489990234375,-0.7644937038421631,-0.11475849151611328,-0.38231563568115234
1712257269017496300,2.166496337890625,-0.8814010620117188,-0.01711750030517578,-0.13714689016342163
1712257269027502300,2.17650244140625,-0.9544738531112671,-0.045482635498046875,0.06227058172225952
1712257269037508600,2.186508544921875,-0.7008748054504395,0.014413833618164062,0.15619730949401855
1712257269047515000,2.196514892578125,-0.017061233520507812,0.20356082916259766,0.1450933814048767
1712257269057521200,2.206521240234375,0.47168874740600586,0.2432851791381836,0.014797359704971313
1712257269067527400,2.21652734375,0.4333059787750244,0.21514225006103516,-0.10037168860435486
1712257269077533700,2.22653369140625,0.20898175239562988,0.05746650695800781,-0.14372321963310242
1712257269087540000,2.2365400390625,-0.1784379482269287,-0.19046783447265625,-0.03471851348876953
1712257269097546200,2.246546142578125,-0.4139413833618164,-0.2647428512573242,-0.14117154479026794
1712257269107552500,2.256552490234375,-0.2720828056335449,-0.1511211395263672,-0.3163644075393677
1712257269117558800,2.266558837890625,-0.19251012802124023,-0.1509847640991211,-0.021382451057434082
1712257269127565000,2.27656494140625,-0.36119937896728516,-0.3258943557739258,0.13876086473464966
1712257269137571000,2.286571044921875,-0.6109535694122314,-0.35560131072998047,0.10360139608383179
1712257269147577300,2.296577392578125,-0.9280000925064087,-0.3168830871582031,0.09362268447875977
1712257269157583600,2.30658349609375,-1.303861379623413,-0.3051614761352539,0.15722280740737915
1712257269167590000,2.31658984375,-1.7357419729232788,-0.38658618927001953,0.20816338062286377
1712257269177596200,2.32659619140625,-2.1173670291900635,-0.46459293365478516,0.18456390500068665
1712257269187602400,2.3366025390625,-2.0690770149230957,-0.5292263031005859,-0.05805918574333191
1712257269197608700,2.346608642578125,-1.3713343143463135,-0.4759511947631836,-0.15437403321266174
1712257269207615000,2.356614990234375,-0.3878772258758545,-0.4782381057739258,-0.2102862000465393
1712257269217621200,2.366621337890625,0.2864046096801758,-0.48506832122802734,-0.10574814677238464
1712257269227627500,2.37662744140625,0.326948881149292,-0.4733896255493164,-0.04994332790374756
1712257269237633800,2.3866337890625,-0.031873464584350586,-0.3713369369506836,-0.00853779911994934
1712257269247640000,2.39664013671875,-0.4532334804534912,-0.2881488800048828,0.1103614866733551
1712257269257646000,2.40664599609375,-0.6437013149261475,-0.17543697357177734,0.1454012393951416
1712257269267652400,2.41665234375,-0.6668553352355957,-0.07599449157714844,0.16816380620002747
1712257269277658600,2.42665869140625,-0.32671666145324707,-0.03764533996582031,0.11099520325660706
1712257269287665000,2.436664794921875,0.21167325973510742,0.15840911865234375,0.015651553869247437
1712257269297671200,2.446671142578125,0.5215802192687988,0.13394832611083984,-0.057070374488830566
1712257269307677400,2.456677490234375,0.42307496070861816,0.1043386459350586,-0.01682215929031372
1712257269317683700,2.46668359375,0.3122103214263916,0.1939067840576172,0.04680129885673523
1712257269327690000,2.47668994140625,0.2884693145751953,0.24019432067871094,0.04378637671470642
1712257269337696300,2.4866962890625,0.3617739677429199,0.21928882598876953,-0.0015561282634735107
1712257269347702500,2.49670263671875,0.5777685642242432,0.20679187774658203,-0.013548433780670166
1712257269357708800,2.506708740234375,0.6319334506988525,0.17836761474609375,-0.06895856559276581
1712257269367715000,2.516715087890625,0.5385923385620117,0.13423633575439453,-0.1637079268693924
1712257269377721000,2.52672119140625,0.31642699241638184,0.0175018310546875,-0.14550060033798218
1712257269387727400,2.536727294921875,0.11228680610656738,-0.08525848388671875,-0.10515645146369934
1712257269397733600,2.546733642578125,-0.08472561836242676,-0.11173820495605469,-0.06077270209789276
1712257269407740000,2.556739990234375,-0.08513236045837402,-0.052321434020996094,0.05069112777709961
1712257269417746200,2.56674609375,0.1353282928466797,-0.07467174530029297,-0.02893887460231781
1712257269427752400,2.57675244140625,0.15279340744018555,-0.14079952239990234,-0.1183609813451767
1712257269437758700,2.5867587890625,-0.12851953506469727,-0.1881265640258789,-0.1275423765182495
1712257269447765000,2.596764892578125,-0.45316290855407715,-0.20609092712402344,-0.04248473048210144
1712257269457771300,2.606771240234375,-0.5370049476623535,-0.18932437896728516,0.10959634184837341
1712257269467777500,2.616777587890625,-0.5487203598022461,-0.17108821868896484,0.14839327335357666
1712257269477783800,2.62678369140625,-0.4265460968017578,-0.1179819107055664,0.1939571499824524
1712257269487789800,2.636789794921875,-0.17430424690246582,-0.04966449737548828,0.06905421614646912
1712257269497796000,2.646796142578125,0.06236624717712402,-0.010004997253417969,-0.07944805920124054
1712257269507802400,2.65680224609375,0.05615568161010742,0.033959388732910156,-0.13792893290519714
1712257269517808600,2.66680859375,-0.09762787818908691,0.0634908676147461,-0.11642852425575256
1712257269527815000,2.67681494140625,-0.2804830074310303,0.05048370361328125,-0.10543709993362427
1712257269537821200,2.6868212890625,-0.5414979457855225,-0.004349708557128906,-0.11420634388923645
1712257269547827500,2.696827392578125,-0.8728156089782715,-0.0905609130859375,-0.05628079175949097
1712257269557833700,2.706833740234375,-1.210228443145752,-0.1353616714477539,-0.022101640701293945
1712257269567840000,2.716840087890625,-1.532660961151123,-0.24744224548339844,-0.03550012409687042
1712257269577846300,2.72684619140625,-1.8955159187316895,-0.37753868103027344,-0.0054014623165130615
1712257269587852500,2.7368525390625,-2.096011161804199,-0.48610877990722656,0.03963889181613922
1712257269597858800,2.74685888671875,-2.0841948986053467,-0.5195016860961914,0.0667404979467392
1712257269607864800,2.75686474609375,-1.8029580116271973,-0.5157842636108398,0.06712153553962708
1712257269617871000,2.76687109375,-1.4112727642059326,-0.5286521911621094,-0.026384204626083374
1712257269627877400,2.77687744140625,-0.8325619697570801,-0.5598249435424805,-0.06200489401817322
1712257269637883600,2.786883544921875,-0.577437162399292,-0.5397481918334961,-0.06454668939113617
1712257269647890000,2.796889892578125,-0.6124262809753418,-0.5202951431274414,-0.09412316977977753
1712257269657896200,2.806896240234375,-1.213364601135254,-0.4699087142944336,-0.21210531890392303
1712257269667902500,2.81690234375,-2.0396416187286377,-0.30165576934814453,-0.25264719128608704
1712257269677908700,2.82690869140625,-1.8655273914337158,-0.12661075592041016,-0.023811399936676025
1712257269687915000,2.8369150390625,-1.5523388385772705,-0.2238311767578125,0.3142548203468323
1712257269697921300,2.84692138671875,-0.8851156234741211,-0.3516058921813965,0.45795246958732605
1712257269707927600,2.856927490234375,-0.9315557479858398,-0.6062946319580078,0.5381633639335632
1712257269717933800,2.866933837890625,-0.8383941650390625,-0.5982170104980469,0.6260468363761902
1712257269727939800,2.87693994140625,-0.39180994033813477,-0.46526145935058594,0.14119583368301392
1712257269737946000,2.886946044921875,-0.1287212371826172,-0.5724444389343262,0.025395467877388
1712257269747952400,2.896952392578125,0.20758342742919922,-0.7253656387329102,0.1841452270746231
1712257269757958700,2.906958740234375,0.45615386962890625,-0.8533577919006348,0.27722737193107605
1712257269767965000,2.91696484375,0.7451119422912598,-0.697443962097168,0.1049385815858841
1712257269777971200,2.92697119140625,0.912757396697998,-0.7176775932312012,-0.030265651643276215
1712257269787977500,2.9369775390625,0.6789755821228027,-0.6006603240966797,-0.06476995348930359
1712257269797983700,2.946983642578125,0.5274715423583984,-0.3719158172607422,-0.2630208730697632
1712257269807990000,2.956989990234375,0.6307144165039062,-0.48236989974975586,-0.29259830713272095
1712257269817996300,2.966996337890625,0.6356420516967773,-0.6316080093383789,-0.21404080092906952
1712257269828002600,2.97700244140625,0.7321572303771973,-0.2839818000793457,-0.15342259407043457
1712257269838008600,2.987008544921875,0.8082466125488281,-0.03689718246459961,-0.2193233072757721
1712257269848014800,2.997014892578125,1.0202250480651855,-0.02284383773803711,-0.13859236240386963
1712257269858021000,3.007021240234375,1.0723228454589844,0.4352412223815918,-0.5860990285873413
1712257269868027400,3.01702734375,1.2629308700561523,-0.37621355056762695,-0.6312668323516846
1712257269878033700,3.02703369140625,0.26126670837402344,-0.8690018653869629,0.0901578739285469
1712257269888040000,3.0370400390625,-0.1262655258178711,0.33177995681762695,0.1554822325706482
1712257269898046200,3.047046142578125,-0.39563560485839844,0.4810791015625,0.1831032931804657
1712257269908052500,3.057052490234375,-0.7144880294799805,-0.1144256591796875,0.2959602475166321
1712257269918058800,3.067058837890625,-0.9669003486633301,-0.515526294708252,0.04846271872520447
1712257269928065000,3.07706494140625,-1.049598217010498,-0.8102016448974609,-0.022805005311965942
1712257269938071300,3.0870712890625,-0.7959585189819336,-0.5300970077514648,0.058220088481903076
1712257269948077600,3.09707763671875,-0.18478107452392578,-0.07339668273925781,-0.07539451867341995
1712257269958083600,3.10708349609375,0.3170194625854492,-0.06923580169677734,-0.0668715089559555
1712257269968089900,3.11708984375,0.4776277542114258,0.015121936798095703,0.06594155728816986
1712257269978096000,3.12709619140625,0.5240774154663086,0.10880231857299805,0.023504197597503662
1712257269988102400,3.137102294921875,0.5861701965332031,0.047327518463134766,-0.12743212282657623
1712257269998108700,3.147108642578125,0.8639421463012695,-0.1834731101989746,-0.38538146018981934
1712257270008115000,3.157114990234375,1.2221097946166992,-0.5866854190826416,-0.6373870372772217
1712257270018121200,3.167121337890625,1.5129327774047852,-0.7679445743560791,-0.5668822526931763
1712257270028127500,3.17712744140625,1.8752250671386719,-0.5860514640808105,-0.425368070602417
1712257270038133800,3.1871337890625,2.304462432861328,-0.187514066696167,-0.5136523246765137
1712257270048140000,3.19714013671875,2.571457862854004,0.25338268280029297,-0.4007953405380249
1712257270058146300,3.207146240234375,2.56707763671875,0.6009585857391357,0.09819400310516357
1712257270068152600,3.217152587890625,2.2969131469726562,0.8495090007781982,0.49238115549087524
1712257270078158600,3.22715869140625,1.7704076766967773,1.0107004642486572,0.6283113956451416
1712257270088164900,3.237164794921875,1.2636661529541016,1.0554604530334473,0.6492283344268799
1712257270098171100,3.247171142578125,0.9132289886474609,0.8174357414245605,0.7004959583282471
1712257270108177400,3.257177490234375,0.7362794876098633,0.39705944061279297,0.5941280722618103
1712257270118183700,3.26718359375,0.6888151168823242,0.07816290855407715,0.29969415068626404
1712257270128190000,3.27718994140625,0.7756204605102539,-0.006860256195068359,-0.05638989806175232
1712257270138196200,3.2871962890625,0.8156061172485352,0.0484013557434082,-0.3339458107948303
1712257270148202500,3.297202392578125,0.5605802536010742,0.1435689926147461,-0.4138728380203247
1712257270158208800,3.307208740234375,0.3311595916748047,0.2167515754699707,-0.4033375382423401
1712257270168215000,3.317215087890625,-0.04940605163574219,0.23936057090759277,-0.23748816549777985
1712257270178221300,3.32722119140625,-0.500396728515625,0.22865891456604004,-0.0112123042345047
1712257270188227300,3.337227294921875,-0.7788429260253906,0.18205523490905762,0.13478372991085052
1712257270198233600,3.347233642578125,-0.9283008575439453,0.15214920043945312,0.2989446520805359
1712257270208239900,3.357239990234375,-1.0016508102416992,0.04320836067199707,0.38185936212539673
1712257270218246100,3.36724609375,-0.903651237487793,-0.0635526180267334,0.3953341245651245
1712257270228252400,3.37725244140625,-0.7252941131591797,-0.1209571361541748,0.19424259662628174
1712257270238258700,3.3872587890625,-0.5331506729125977,-0.13516592979431152,-0.08191056549549103
1712257270248265000,3.397264892578125,-0.3408222198486328,-0.1181333065032959,-0.20163802802562714
1712257270258271200,3.407271240234375,-0.17179489135742188,-0.09036779403686523,-0.21791881322860718
1712257270268277500,3.417277587890625,-0.07861042022705078,-0.023066282272338867,-0.1731223165988922
1712257270278283800,3.42728369140625,0.0006694793701171875,0.041872501373291016,-0.11078295111656189
1712257270288290000,3.4372900390625,0.04685688018798828,0.09547591209411621,-0.02742438018321991
1712257270298296300,3.44729638671875,0.07865333557128906,0.1298229694366455,0.03467699885368347
1712257270308302300,3.45730224609375,0.22476577758789062,0.1074979305267334,0.0051975250244140625
1712257270318308600,3.46730859375,0.4754791259765625,0.137894868850708,0.018413066864013672
1712257270328315000,3.47731494140625,0.7163801193237305,0.18573808670043945,0.02252832055091858
1712257270338321200,3.487321044921875,0.8143739700317383,0.23473620414733887,0.055726468563079834
1712257270348327400,3.497327392578125,0.7748069763183594,0.2509298324584961,0.09869030117988586
1712257270358333700,3.507333740234375,0.6505680084228516,0.263028621673584,0.10471981763839722
1712257270368340000,3.517340087890625,0.5037269592285156,0.26696324348449707,0.07989493012428284
1712257270378346200,3.52734619140625,0.26705360412597656,0.240492582321167,0.0666029155254364
1712257270388352500,3.5373525390625,0.016664505004882812,0.17606759071350098,0.016159504652023315
1712257270398358800,3.54735888671875,-0.1760120391845703,0.06995773315429688,-0.06800204515457153
1712257270408365000,3.557364990234375,-0.36863136291503906,0.0279388427734375,-0.03775817155838013
1712257270418371600,3.56737158203125,-0.48499298095703125,-0.0068743228912353516,-0.0649648904800415
1712257270428377900,3.5773779296875,-0.5299777984619141,-0.04434490203857422,-0.10728192329406738
1712257270438384000,3.587384033203125,-0.5514583587646484,-0.056107282638549805,-0.10238352417945862
1712257270448390400,3.597390380859375,-0.4681844711303711,-0.061933040618896484,-0.0876278281211853
1712257270458396700,3.607396728515625,-0.3805732727050781,-0.048020124435424805,-0.13941256701946259
1712257270468403000,3.61740283203125,-0.3459196090698242,0.00946354866027832,-0.19119563698768616
1712257270478409200,3.6274091796875,-0.273406982421875,0.07218575477600098,-0.11255389451980591
1712257270488415500,3.63741552734375,-0.21089553833007812,0.11134815216064453,-0.02695488929748535
1712257270498421800,3.647421875,-0.19692325592041016,0.12840700149536133,0.03564754128456116
1712257270508428300,3.65742822265625,-0.0832967758178711,0.1426081657409668,0.05015644431114197
1712257270518434600,3.6674345703125,0.11594295501708984,0.15225648880004883,-0.003432631492614746
1712257270528440800,3.67744091796875,0.29125404357910156,0.16046452522277832,-0.05842345952987671
1712257270538447000,3.687447021484375,0.4286813735961914,0.16634345054626465,-0.07750532031059265
1712257270548453400,3.697453369140625,0.4376087188720703,0.1505129337310791,-0.1448424756526947
1712257270558459600,3.707459716796875,0.3993349075317383,0.11846685409545898,-0.14965710043907166
1712257270568466000,3.7174658203125,0.33336830139160156,0.10775876045227051,-0.06503579020500183
1712257270578472200,3.72747216796875,0.18463420867919922,0.11652708053588867,0.02836167812347412
1712257270588478700,3.737478759765625,-0.017622947692871094,0.11864519119262695,0.12147939205169678
1712257270598485000,3.747485107421875,-0.22599506378173828,0.10195231437683105,0.15803200006484985
1712257270608491300,3.7574912109375,-0.3228921890258789,0.07688355445861816,0.09211501479148865
1712257270618497500,3.76749755859375,-0.32915306091308594,0.03458356857299805,0.0009866654872894287
1712257270628503800,3.77750390625,-0.31220054626464844,-0.0009171962738037109,-0.05062681436538696
1712257270638510000,3.787510009765625,-0.3382101058959961,-0.006389141082763672,-0.04142117500305176
1712257270648516400,3.797516357421875,-0.2839517593383789,0.007951974868774414,-0.07599711418151855
1712257270658522600,3.807522705078125,-0.17421913146972656,0.003931522369384766,-0.13553375005722046
1712257270668529000,3.81752880859375,-0.08537769317626953,0.033747196197509766,-0.0956139862537384
1712257270678535200,3.82753515625,-0.04574871063232422,0.10740017890930176,0.010343670845031738
1712257270688541400,3.83754150390625,0.0017948150634765625,0.1636180877685547,0.03500032424926758
1712257270698547700,3.847547607421875,0.08078765869140625,0.17866039276123047,0.022648125886917114
1712257270708553700,3.8575537109375,0.2332592010498047,0.16673970222473145,0.06362515687942505
1712257270718560000,3.86756005859375,0.3879117965698242,0.14073848724365234,0.11409753561019897
1712257270728566300,3.877566162109375,0.4510231018066406,0.12748503684997559,0.1415151059627533
1712257270738572500,3.887572509765625,0.3680992126464844,0.09231710433959961,0.10813269019126892
1712257270748578800,3.897578857421875,0.24999332427978516,0.06394147872924805,-0.08694738149642944
1712257270758585000,3.907585205078125,0.116302490234375,0.12183380126953125,-0.13561177253723145
1712257270768591400,3.91759130859375,-0.009275436401367188,0.13302183151245117,-0.11990967392921448
1712257270778597600,3.92759765625,-0.16022872924804688,0.11372780799865723,-0.1728362739086151
1712257270788604000,3.93760400390625,-0.2706184387207031,0.09865570068359375,-0.20327061414718628
1712257270798610200,3.947610107421875,-0.3838205337524414,0.031943559646606445,-0.08237913250923157
1712257270808616400,3.957616455078125,-0.5521974563598633,-0.02258753776550293,-0.014083147048950195
1712257270818622700,3.967622802734375,-0.6436843872070312,-0.049057960510253906,0.03178691864013672
1712257270828628700,3.977628662109375,-0.6317157745361328,-0.06101512908935547,0.10833501815795898
1712257270838635000,3.987635009765625,-0.4802284240722656,-0.06844568252563477,0.12511497735977173
1712257270848641300,3.997641357421875,-0.2805471420288086,-0.016401052474975586,0.08802253007888794
1712257270858647600,4.0076474609375,-0.10836982727050781,0.07871532440185547,0.049321115016937256
1712257270868653800,4.01765380859375,0.01369476318359375,0.1256554126739502,0.011331617832183838
1712257270878660000,4.02766015625,0.11024284362792969,0.08237195014953613,-0.055479079484939575
1712257270888666400,4.037666259765625,0.2150726318359375,0.07644796371459961,-0.0531822144985199
1712257270898672600,4.047672607421875,0.2578105926513672,0.0966346263885498,0.03099045157432556
1712257270908679000,4.057678955078125,0.28655242919921875,0.06702351570129395,0.0510043203830719
1712257270918685200,4.067685302734375,0.31087779998779297,0.05897831916809082,0.06165492534637451
1712257270928691500,4.07769140625,0.26491546630859375,0.06283378601074219,0.03936278820037842
1712257270938697700,4.08769775390625,0.15897846221923828,0.08849048614501953,0.018750131130218506
1712257270948703700,4.097703857421875,0.026788711547851562,0.07966732978820801,0.005512714385986328
1712257270958710000,4.1077099609375,-0.056056976318359375,0.0753028392791748,-0.024833649396896362
1712257270968716300,4.11771630859375,-0.09505081176757812,0.07069778442382812,-0.011975228786468506
1712257270978722600,4.12772265625,-0.11916637420654297,0.05189180374145508,0.004548013210296631
1712257270988728800,4.137728759765625,-0.15675926208496094,0.018724679946899414,-0.046213239431381226
1712257270998735000,4.147735107421875,-0.19353008270263672,0.0233612060546875,-0.09230515360832214
1712257271008741400,4.157741455078125,-0.1920156478881836,0.046776771545410156,-0.08583042025566101
1712257271018747600,4.16774755859375,-0.20978832244873047,0.05199456214904785,-0.09169042110443115
1712257271028754000,4.17775390625,-0.289398193359375,0.04074263572692871,-0.1233828067779541
1712257271038760200,4.18776025390625,-0.36428165435791016,0.03830599784851074,-0.11655211448669434
1712257271048766500,4.197766357421875,-0.3074827194213867,0.026218891143798828,-0.10633531212806702
1712257271058772500,4.2077724609375,-0.0971841812133789,0.02656269073486328,-0.03494781255722046
1712257271068778800,4.21777880859375,0.09051513671875,0.027442455291748047,0.018175244331359863
1712257271078785000,4.227784912109375,0.11963081359863281,0.04730081558227539,-0.05145499110221863
1712257271088791300,4.237791259765625,0.09163761138916016,0.0626063346862793,-0.10173904895782471
1712257271098797600,4.247797607421875,0.04039764404296875,0.09729480743408203,-0.06351116299629211
1712257271108803800,4.257803955078125,-0.0009307861328125,0.09513211250305176,-0.013715088367462158
1712257271118810000,4.26781005859375,-0.03258991241455078,0.056943416595458984,0.057071179151535034
1712257271128816400,4.27781640625,0.0680074691772461,0.05764269828796387,0.11585772037506104
1712257271138822700,4.28782275390625,0.2429828643798828,0.1315782070159912,0.15430280566215515
1712257271148829000,4.297828857421875,0.3032655715942383,0.10624861717224121,0.16443583369255066
1712257271158835200,4.307835205078125,0.2505502700805664,0.08259391784667969,0.12482523918151855
1712257271168841500,4.317841552734375,0.16153335571289062,0.0902411937713623,0.03304097056388855
1712257271178847500,4.327847412109375,0.036408424377441406,0.04552578926086426,-0.046376317739486694
1712257271188853800,4.337853759765625,-0.015888214111328125,-0.022336244583129883,0.01686301827430725
1712257271198860000,4.347860107421875,-0.10953521728515625,-0.08957791328430176,0.11704021692276001
1712257271208866300,4.3578662109375,-0.2631187438964844,-0.12652826309204102,0.14938363432884216
1712257271218872600,4.36787255859375,-0.4057426452636719,-0.09386682510375977,0.07346272468566895
1712257271228878800,4.37787890625,-0.4485034942626953,-0.005656242370605469,-0.09985220432281494
1712257271238885000,4.387885009765625,-0.33640384674072266,0.061330318450927734,-0.17550572752952576
1712257271248891400,4.397891357421875,-0.1986684799194336,0.05880546569824219,-0.08863988518714905
1712257271258897700,4.407897705078125,-0.053780555725097656,0.04685020446777344,0.020666778087615967
1712257271268904000,4.417904052734375,0.02813720703125,0.06138873100280762,0.1138060986995697
1712257271278910200,4.42791015625,-0.027281761169433594,0.10693192481994629,0.13906916975975037
1712257271288916500,4.43791650390625,-0.07675838470458984,0.17442846298217773,0.11121779680252075
1712257271298922500,4.447922607421875,0.0019731521606445312,0.19310641288757324,0.13430941104888916
1712257271308928800,4.4579287109375,0.1315937042236328,0.1774156093597412,0.1414758563041687
1712257271318935000,4.46793505859375,0.2268352508544922,0.12205982208251953,0.030122369527816772
1712257271328941300,4.47794140625,0.23183345794677734,0.04625248908996582,-0.03711962699890137
1712257271338947600,4.487947509765625,0.18546676635742188,-0.0017952919006347656,-0.05028960108757019
1712257271348953900,4.497953857421875,0.10693168640136719,-0.0162656307220459,-0.12800340354442596
1712257271358960000,4.507960205078125,0.05303764343261719,0.0032792091369628906,-0.2102627158164978
1712257271368966400,4.51796630859375,0.061051368713378906,-0.004845619201660156,-0.20397061109542847
1712257271378972700,4.52797265625,0.059368133544921875,-0.002811908721923828,-0.10955657064914703
1712257271388979000,4.53797900390625,0.07652091979980469,0.003997325897216797,-0.06393016874790192
1712257271398985200,4.547985107421875,0.10303592681884766,0.005300998687744141,-0.09485630691051483
1712257271408991200,4.5579912109375,0.0164642333984375,0.04317736625671387,-0.064836785197258
1712257271418997500,4.56799755859375,-0.06388378143310547,0.07550978660583496,-0.0496772825717926
1712257271429003800,4.578003662109375,-0.11456108093261719,0.10698175430297852,-0.005878180265426636
1712257271439010000,4.588010009765625,-0.1502094268798828,0.1188652515411377,-0.03303110599517822
1712257271449016300,4.598016357421875,-0.15700149536132812,0.08815693855285645,-0.1022503674030304
1712257271459022600,4.608022705078125,-0.15900421142578125,0.05816340446472168,-0.11946995556354523
1712257271469028900,4.61802880859375,-0.0951089859008789,0.04328107833862305,-0.13939115405082703
1712257271479035100,4.62803515625,0.0053997039794921875,0.014918088912963867,-0.1443084180355072
1712257271489041400,4.63804150390625,0.10439586639404297,0.0009713172912597656,-0.08149166405200958
1712257271499047700,4.648047607421875,0.1735849380493164,0.005999088287353516,-0.02603718638420105
1712257271509054000,4.658053955078125,0.21813201904296875,0.02017664909362793,0.0384046733379364
1712257271519060200,4.668060302734375,0.2572059631347656,0.05745959281921387,0.17511799931526184
1712257271529066200,4.678066162109375,0.2720985412597656,0.08426737785339355,0.2377355992794037
1712257271539072500,4.688072509765625,0.21627521514892578,0.11911797523498535,0.19450423121452332
1712257271549078800,4.698078857421875,0.15185165405273438,0.1251354217529297,0.05136099457740784
1712257271559085000,4.7080849609375,0.07392311096191406,0.09942364692687988,-0.060267239809036255
1712257271569091300,4.71809130859375,0.10070133209228516,0.03741955757141113,-0.022421598434448242
1712257271579097600,4.72809765625,0.21712779998779297,-0.029631614685058594,0.02382645010948181
1712257271589103900,4.738103759765625,0.2339038848876953,-0.05627131462097168,0.05036231875419617
1712257271599110100,4.748110107421875,0.12910747528076172,-0.06193041801452637,0.12898844480514526
1712257271609116400,4.758116455078125,-0.05330467224121094,-0.012816190719604492,0.1292700469493866
1712257271619122700,4.768122802734375,-0.10991668701171875,-0.031453847885131836,0.11133423447608948
1712257271629129000,4.77812890625,-0.21244049072265625,-0.012595891952514648,0.05531749129295349
1712257271639135200,4.78813525390625,-0.3507556915283203,0.02442455291748047,0.09423115849494934
1712257271649141200,4.798141357421875,-0.4493122100830078,-0.018833637237548828,0.13048982620239258
1712257271659147500,4.8081474609375,-0.5845098495483398,-0.07423877716064453,0.08131027221679688
1712257271669153800,4.81815380859375,-0.7236404418945312,-0.11587929725646973,-0.0022211670875549316
1712257271679160000,4.82816015625,-0.7356672286987305,-0.11382651329040527,-0.0538562536239624
1712257271689166300,4.838166259765625,-0.7405157089233398,-0.10627555847167969,-0.03524252772331238
1712257271699172600,4.848172607421875,-0.6014165878295898,-0.1264188289642334,-0.022312521934509277
1712257271709179000,4.858178955078125,-0.4423379898071289,-0.08593606948852539,-0.10033437609672546
1712257271719185200,4.86818505859375,-0.27222442626953125,0.031255483627319336,-0.23019000887870789
1712257271729191400,4.87819140625,-0.133087158203125,0.13798904418945312,-0.19496721029281616
1712257271739197700,4.88819775390625,0.07931137084960938,0.28115034103393555,-0.0797656774520874
1712257271749204000,4.898203857421875,0.3542146682739258,0.30502820014953613,-0.10811501741409302
1712257271759210000,4.9082099609375,0.695490837097168,0.2531239986419678,-0.08317531645298004
1712257271769216300,4.91821630859375,1.0509614944458008,0.10518980026245117,0.11526784300804138
1712257271779222500,4.928222412109375,1.299001693725586,0.037949323654174805,0.15410831570625305
1712257271789228800,4.938228759765625,1.2584962844848633,0.20270538330078125,-0.20634157955646515
1712257271799235000,4.948235107421875,0.9628467559814453,-0.12119078636169434,-0.18321672081947327
1712257271809241300,4.958241455078125,0.24580860137939453,0.07057762145996094,-0.05997437238693237
1712257271819247600,4.96824755859375,-0.44513416290283203,0.24950718879699707,-0.11035376787185669
1712257271829254000,4.97825390625,-0.7918701171875,0.22385096549987793,-0.20470646023750305
1712257271839260200,4.98826025390625,-0.8759555816650391,0.0783395767211914,-0.016051411628723145
1712257271849266400,4.998266357421875,-0.7819709777832031,-0.07631826400756836,0.17786720395088196
1712257271859272700,5.008272705078125,-0.5829639434814453,-0.17105746269226074,0.1506780982017517
1712257271869279000,5.018279052734375,-0.28462696075439453,-0.2091209888458252,0.05531209707260132
1712257271879285000,5.028284912109375,0.0888681411743164,-0.2135148048400879,-0.0034664273262023926
1712257271889291300,5.038291259765625,0.3301382064819336,-0.14582014083862305,-0.10590051114559174
1712257271899297500,5.048297607421875,0.3664970397949219,-0.018176555633544922,-0.19897478818893433
1712257271909303800,5.0583037109375,0.2908210754394531,0.0738680362701416,-0.12900231778621674
1712257271919310000,5.06831005859375,0.0474090576171875,0.12428092956542969,0.01260751485824585
1712257271929316400,5.07831640625,-0.19736003875732422,0.15189790725708008,-0.0022198855876922607
1712257271939322600,5.088322509765625,-0.2839794158935547,0.10296797752380371,-0.00030115246772766113
1712257271949329000,5.098328857421875,-0.266815185546875,0.030405282974243164,0.13069593906402588
1712257271959335200,5.108335205078125,-0.15679550170898438,0.018924474716186523,0.16973575949668884
1712257271969341400,5.118341552734375,0.06414413452148438,0.046331167221069336,0.10289070010185242
1712257271979347700,5.12834765625,0.2628927230834961,0.06766462326049805,0.021999508142471313
1712257271989354000,5.13835400390625,0.3835020065307617,0.11060619354248047,0.0691896378993988
1712257271999360000,5.148360107421875,0.4789752960205078,0.18919730186462402,0.09644365310668945
1712257272009366300,5.1583662109375,0.5170221328735352,0.19377851486206055,0.018799692392349243
1712257272019372500,5.16837255859375,0.5082492828369141,0.10598540306091309,-0.04428727924823761
1712257272029378800,5.17837890625,0.37823486328125,-0.007300376892089844,-0.044605597853660583
1712257272039385000,5.188385009765625,-0.007961273193359375,-0.05000567436218262,-0.003391951322555542
1712257272049391400,5.198391357421875,-0.32178592681884766,-0.08706259727478027,-0.031565651297569275
1712257272059397600,5.208397705078125,-0.4798460006713867,-0.10394477844238281,-0.04308466613292694
1712257272069404000,5.21840380859375,-0.5271711349487305,-0.12455224990844727,-0.007879704236984253
1712257272079410200,5.22841015625,-0.47054481506347656,-0.11990118026733398,-0.03902684152126312
1712257272089416400,5.23841650390625,-0.4107856750488281,-0.09442281723022461,-0.22530147433280945
1712257272099422700,5.248422607421875,-0.5649690628051758,-0.14103412628173828,-0.3497981131076813
1712257272109428700,5.2584287109375,-0.7654199600219727,-0.18074512481689453,-0.24122925102710724
1712257272119435000,5.26843505859375,-0.714869499206543,-0.11437797546386719,-0.06671543419361115
1712257272129441300,5.278441162109375,-0.4546356201171875,0.0026941299438476562,-0.018537402153015137
1712257272139447600,5.288447509765625,-0.09575271606445312,0.1152951717376709,0.02914106845855713
1712257272149453800,5.298453857421875,0.2573089599609375,0.20656538009643555,0.08350491523742676
1712257272159460000,5.308460205078125,0.4638023376464844,0.26551175117492676,0.08244413137435913
1712257272169466400,5.31846630859375,0.4742565155029297,0.33057713508605957,-0.014885127544403076
1712257272179472600,5.32847265625,0.5276165008544922,0.34020161628723145,-0.06596443057060242
1712257272189479000,5.33847900390625,0.6190013885498047,0.26080918312072754,0.13284024596214294
1712257272199485200,5.348485107421875,0.6682586669921875,0.18637490272521973,0.33113473653793335
1712257272209491500,5.358491455078125,0.6480588912963867,0.11598038673400879,0.42573389410972595
1712257272219497700,5.368497802734375,0.5590219497680664,0.008655071258544922,0.44956347346305847
1712257272229503700,5.378503662109375,0.38258838653564453,-0.06162834167480469,0.29755574464797974
1712257272239510000,5.388510009765625,0.12877178192138672,-0.11115050315856934,0.0414792001247406
1712257272249516300,5.398516357421875,-0.07443714141845703,-0.18550443649291992,-0.16922527551651
1712257272259522600,5.4085224609375,-0.1287374496459961,-0.24259376525878906,-0.24767200648784637
1712257272269528800,5.41852880859375,-0.1679706573486328,-0.22310161590576172,-0.21527798473834991
1712257272279535000,5.42853515625,-0.2863025665283203,-0.0915670394897461,-0.06875836849212646
1712257272289541400,5.438541259765625,-0.3743152618408203,0.05170702934265137,0.055492669343948364
1712257272299547600,5.448547607421875,-0.4281930923461914,0.1275322437286377,0.16005286574363708
1712257272309554000,5.458553955078125,-0.4487152099609375,0.18940472602844238,0.18975576758384705
1712257272319560200,5.468560302734375,-0.3845701217651367,0.1714310646057129,0.13125652074813843
1712257272329566500,5.47856640625,-0.27454090118408203,0.09760332107543945,0.02742403745651245
1712257272339572500,5.488572509765625,-0.15697479248046875,0.001653432846069336,-0.0937504917383194
1712257272349578800,5.498578857421875,-0.09325695037841797,-0.07813382148742676,-0.22807756066322327
1712257272359585000,5.5085849609375,-0.10631656646728516,-0.13161301612854004,-0.342761754989624
1712257272369591300,5.51859130859375,-0.0017900466918945312,-0.10262632369995117,-0.4115262031555176
1712257272379597600,5.52859765625,0.20468521118164062,-0.03621840476989746,-0.35216856002807617
1712257272389603800,5.538603759765625,0.3942451477050781,0.013267278671264648,-0.19424448907375336
1712257272399610000,5.548610107421875,0.4780120849609375,0.044893741607666016,-0.05517563223838806
1712257272409616400,5.558616455078125,0.3965721130371094,0.05395150184631348,-0.012947231531143188
1712257272419622700,5.56862255859375,0.2509479522705078,0.08939266204833984,0.07487404346466064
1712257272429629000,5.57862890625,0.08365440368652344,0.1767728328704834,0.17927685379981995
1712257272439635200,5.58863525390625,-0.006465911865234375,0.21357131004333496,0.11632144451141357
1712257272449641500,5.598641357421875,0.050421714782714844,0.16630101203918457,0.1503795087337494
1712257272459647500,5.6086474609375,0.06395244598388672,0.09592247009277344,0.33322328329086304
1712257272469653800,5.61865380859375,0.03464984893798828,0.036577701568603516,0.40718933939933777
1712257272479660000,5.628659912109375,0.03385353088378906,-0.011702775955200195,0.32079261541366577
1712257272489666300,5.638666259765625,0.02806854248046875,-0.025233983993530273,0.1746845543384552
1712257272499672600,5.648672607421875,0.027085304260253906,-0.02407550811767578,0.02863439917564392
1712257272509678800,5.658678955078125,0.04050731658935547,-0.07055449485778809,-0.07516029477119446
1712257272519685000,5.66868505859375,0.002483367919921875,-0.10375261306762695,-0.14174588024616241
1712257272529691400,5.67869140625,-0.11429786682128906,-0.12417888641357422,-0.19056764245033264
1712257272539697700,5.68869775390625,-0.24739742279052734,-0.09879946708679199,-0.17484597861766815
1712257272549704000,5.698703857421875,-0.3544445037841797,-0.07461333274841309,-0.09029322862625122
1712257272559710200,5.708710205078125,-0.42687416076660156,-0.02211904525756836,-0.03556770086288452
1712257272569716700,5.718716796875,-0.43726444244384766,0.044867753982543945,-0.052191346883773804
1712257272579723000,5.728722900390625,-0.36335182189941406,0.07981014251708984,-0.07288572192192078
1712257272589729300,5.738729248046875,-0.24427032470703125,0.050493717193603516,-0.07899671792984009
1712257272599735600,5.748735595703125,-0.1184225082397461,0.028630971908569336,-0.12317521870136261
1712257272609741800,5.758741943359375,0.04722309112548828,-0.010022640228271484,-0.2332574427127838
1712257272619748000,5.768748046875,0.16755294799804688,-0.019044160842895508,-0.3520704507827759
1712257272629754400,5.77875439453125,0.23877334594726562,-0.04176211357116699,-0.45168304443359375
1712257272639760600,5.7887607421875,0.27602100372314453,-0.06909966468811035,-0.41056421399116516
1712257272649767000,5.798766845703125,0.3932838439941406,-0.04157900810241699,-0.1193331927061081
1712257272659773400,5.8087734375,0.419586181640625,0.07242965698242188,0.18425747752189636
1712257272669779700,5.81877978515625,0.3374338150024414,0.19713068008422852,0.15782615542411804
1712257272679786000,5.828785888671875,0.28991222381591797,0.25273823738098145,0.14678335189819336
1712257272689792300,5.838792236328125,0.1965961456298828,0.21147799491882324,0.41939327120780945
1712257272699798500,5.848798583984375,0.010858535766601562,0.2079319953918457,0.5886563062667847
1712257272709804800,5.8588046875,-0.148468017578125,0.20992398262023926,0.510122537612915
1712257272719811000,5.86881103515625,-0.18323898315429688,0.15237689018249512,0.3200981914997101
1712257272729817300,5.8788173828125,-0.1473989486694336,0.08833742141723633,0.11913743615150452
1712257272739823900,5.888823974609375,-0.07960128784179688,0.0033502578735351562,-0.09411874413490295
1712257272749830100,5.898830078125,0.029479026794433594,-0.1318209171295166,-0.24504458904266357
1712257272759836400,5.90883642578125,0.06664562225341797,-0.20019197463989258,-0.2458597719669342
1712257272769842700,5.9188427734375,0.03347206115722656,-0.18998003005981445,-0.14631476998329163
1712257272779849000,5.928848876953125,-0.1205129623413086,-0.12197637557983398,-0.017369568347930908
1712257272789855200,5.938855224609375,-0.3608827590942383,-0.05199742317199707,0.0665387213230133
1712257272799861500,5.948861572265625,-0.5410652160644531,0.008652687072753906,0.0771445631980896
1712257272809867800,5.95886767578125,-0.5355167388916016,0.03388357162475586,0.014910250902175903
1712257272819874000,5.9688740234375,-0.3377370834350586,0.019100189208984375,-0.04909026622772217
1712257272829880300,5.97888037109375,-0.058739662170410156,-0.02239370346069336,-0.07768931984901428
1712257272839886600,5.988886474609375,0.19236373901367188,-0.049646615982055664,-0.15044432878494263
1712257272849892900,5.998892822265625,0.29865455627441406,-0.0406184196472168,-0.14742600917816162
1712257272859899100,6.008899169921875,0.31908512115478516,0.03213143348693848,-0.11633431911468506
1712257272869905400,6.018905517578125,0.24551963806152344,0.10608410835266113,0.03175780177116394
1712257272879911700,6.02891162109375,0.11145401000976562,0.21185088157653809,0.12172117829322815
1712257272889918000,6.03891796875,-0.030942916870117188,0.29021668434143066,-0.03706842660903931
1712257272899924200,6.04892431640625,-0.05924224853515625,0.22949481010437012,-0.04766815900802612
1712257272909930500,6.058930419921875,-0.059906005859375,0.12107610702514648,0.10021620988845825
1712257272919936800,6.068936767578125,0.03764533996582031,0.016732215881347656,0.15585798025131226
1712257272929943000,6.078943115234375,0.19494342803955078,-0.05800676345825195,0.10163185000419617
1712257272939949000,6.088948974609375,0.26071834564208984,-0.09093523025512695,-0.03623974323272705
1712257272949955300,6.098955322265625,0.19411373138427734,-0.0732269287109375,-0.17223720252513885
1712257272959961600,6.108961669921875,0.049007415771484375,-0.0946195125579834,-0.21348683536052704
1712257272969967900,6.1189677734375,-0.0979604721069336,-0.11639714241027832,-0.18332929909229279
1712257272979974100,6.12897412109375,-0.17576026916503906,-0.11614274978637695,-0.09786421060562134
1712257272989980400,6.13898046875,-0.30310726165771484,-0.029065370559692383,0.04872453212738037
1712257272999986700,6.148986572265625,-0.4465818405151367,0.05965876579284668,0.14859619736671448
1712257273009993000,6.158992919921875,-0.5265846252441406,0.09556436538696289,0.09627038240432739
1712257273019999200,6.168999267578125,-0.5402488708496094,0.07724142074584961,-0.05323192477226257
1712257273030005500,6.179005615234375,-0.46083831787109375,0.04467272758483887,-0.12013262510299683
1712257273040011800,6.18901171875,-0.2754554748535156,-0.045302629470825195,-0.11069756746292114
1712257273050017800,6.199017822265625,-0.09343147277832031,-0.11396145820617676,-0.17263397574424744
1712257273060024000,6.209024169921875,0.02471923828125,-0.11169672012329102,-0.22158688306808472
1712257273070030300,6.2190302734375,0.19361591339111328,-0.06969022750854492,-0.09309405088424683
1712257273080036600,6.22903662109375,0.2190389633178711,0.09145998954772949,0.2728971838951111
1712257273090043000,6.23904296875,0.03596973419189453,0.39248156547546387,0.5251396894454956
1712257273100049200,6.249049072265625,-0.10334587097167969,0.5617125034332275,0.342273086309433
1712257273110055400,6.259055419921875,0.15379905700683594,0.3744173049926758,0.21633869409561157
1712257273120061700,6.269061767578125,0.5237197875976562,0.1303873062133789,0.24352172017097473
1712257273130068000,6.27906787109375,0.7700424194335938,-0.0018668174743652344,0.02856534719467163
1712257273140074200,6.28907421875,0.9758901596069336,-0.17281031608581543,-0.22188344597816467
1712257273150080500,6.29908056640625,1.072042465209961,-0.294691801071167,-0.29155433177948
1712257273160086800,6.309086669921875,0.9569616317749023,-0.23229408264160156,-0.26524025201797485
1712257273170092800,6.3190927734375,0.6435127258300781,-0.1060338020324707,-0.17322060465812683
1712257273180099000,6.32909912109375,0.22878646850585938,-0.010542869567871094,0.0688152015209198
1712257273190105300,6.339105224609375,-0.2440509796142578,0.09454536437988281,0.27546852827072144
1712257273200111600,6.349111572265625,-0.6764240264892578,0.17042064666748047,0.2569829821586609
1712257273210118000,6.359117919921875,-0.9004411697387695,0.1261897087097168,0.14031445980072021
1712257273220124200,6.369124267578125,-0.962336540222168,0.007261514663696289,0.04028475284576416
1712257273230130400,6.37913037109375,-0.9588890075683594,-0.11965823173522949,-0.00551837682723999
1712257273240136700,6.38913671875,-0.9052801132202148,-0.2309269905090332,-0.07876193523406982
1712257273250143000,6.39914306640625,-0.8067426681518555,-0.2522311210632324,-0.17075571417808533
1712257273260149200,6.409149169921875,-0.6496944427490234,-0.17589139938354492,-0.2549508213996887
1712257273270155500,6.419155517578125,-0.4867219924926758,-0.07884502410888672,-0.32518500089645386
1712257273280161800,6.429161865234375,-0.22336673736572266,-0.02817511558532715,-0.25675109028816223
1712257273290167800,6.439167724609375,0.13940048217773438,0.007517576217651367,-0.15989500284194946
1712257273300174000,6.449174072265625,0.4075145721435547,0.08273768424987793,-0.147315114736557
1712257273310180400,6.459180419921875,0.5688161849975586,0.16251516342163086,-0.14190545678138733
1712257273320186600,6.4691865234375,0.5968351364135742,0.2087874412536621,-0.08077666163444519
1712257273330193000,6.47919287109375,0.46990966796875,0.20864439010620117,0.04694098234176636
1712257273340199200,6.48919921875,0.26982688903808594,0.22626137733459473,0.23364710807800293
1712257273350205400,6.499205322265625,0.07248115539550781,0.2442169189453125,0.3111593723297119
1712257273360211700,6.509211669921875,-0.06148052215576172,0.18402671813964844,0.2114241123199463
1712257273370218000,6.519218017578125,-0.07668590545654297,0.08525443077087402,0.06776583194732666
1712257273380224300,6.529224365234375,0.020540237426757812,-0.02390885353088379,-0.06919142603874207
1712257273390230500,6.53923046875,0.07352733612060547,-0.10212874412536621,-0.13234403729438782
1712257273400236500,6.549236572265625,0.10249519348144531,-0.12784337997436523,-0.159845232963562
1712257273410242800,6.559242919921875,0.09428691864013672,-0.1316661834716797,-0.14596092700958252
1712257273420249000,6.5692490234375,0.05439949035644531,-0.1241147518157959,-0.04866829514503479
1712257273430255400,6.57925537109375,-0.06864166259765625,-0.053232431411743164,0.10413828492164612
1712257273440261600,6.58926171875,-0.23169422149658203,0.029775381088256836,0.1870090365409851
1712257273450268000,6.599267822265625,-0.3170156478881836,0.051125288009643555,0.1894032061100006
1712257273460274200,6.609274169921875,-0.35915470123291016,0.017247676849365234,0.14756345748901367
1712257273470280400,6.619280517578125,-0.4013338088989258,-0.04716300964355469,0.09661829471588135
1712257273480286700,6.62928662109375,-0.43396759033203125,-0.08096885681152344,0.04214993119239807
1712257273490293000,6.63929296875,-0.42395973205566406,-0.11369895935058594,-0.02604573965072632
1712257273500299300,6.64929931640625,-0.4048910140991211,-0.14998579025268555,-0.03954434394836426
1712257273510305500,6.659305419921875,-0.348846435546875,-0.10393548011779785,-0.0833355039358139
1712257273520311600,6.6693115234375,-0.2472076416015625,0.03351950645446777,-0.22266586124897003
1712257273530317800,6.67931787109375,0.049820899963378906,0.1862621307373047,-0.3662171959877014
1712257273540324000,6.689323974609375,0.5016660690307617,0.3011901378631592,-0.47324681282043457
1712257273550330400,6.699330322265625,1.0690422058105469,0.22497892379760742,-0.19450029730796814
1712257273560336600,6.709336669921875,1.5630836486816406,0.04524397850036621,0.28005287051200867
1712257273570343000,6.719343017578125,1.6517324447631836,-0.019666194915771484,0.4089592397212982
1712257273580349200,6.72934912109375,1.1845340728759766,0.05253887176513672,0.26017314195632935
1712257273590355500,6.73935546875,0.42923641204833984,0.10739254951477051,0.08484482765197754
1712257273600361700,6.74936181640625,-0.39536571502685547,0.11244058609008789,0.010277003049850464
1712257273610368000,6.759367919921875,-1.0139331817626953,0.05518794059753418,-0.018989473581314087
1712257273620374300,6.769374267578125,-1.2989921569824219,-0.04175114631652832,-0.033807724714279175
1712257273630380500,6.779380615234375,-1.2369585037231445,-0.13547420501708984,0.02174052596092224
1712257273640386600,6.789386474609375,-0.9285621643066406,-0.13771510124206543,0.2925878167152405
1712257273650392800,6.799392822265625,-0.5560073852539062,-0.020866870880126953,0.4746953547000885
1712257273660399000,6.809399169921875,-0.21912002563476562,0.13761353492736816,0.3067057430744171
1712257273670405400,6.8194052734375,0.25519371032714844,0.25833582878112793,0.234938383102417
1712257273680411600,6.82941162109375,0.772130012512207,0.2948799133300781,0.0968090295791626
1712257273690418000,6.83941796875,1.0316791534423828,0.30142855644226074,-0.07891356945037842
1712257273700424200,6.849424072265625,0.9968967437744141,0.2042086124420166,-0.147939071059227
1712257273710430500,6.859430419921875,0.682459831237793,0.10035347938537598,-0.17745396494865417
1712257273720436700,6.869436767578125,0.26494884490966797,0.09345293045043945,-0.20888160169124603
1712257273730443000,6.879443115234375,-0.0797109603881836,-0.008821249008178711,-0.13941942155361176
1712257273740449300,6.88944921875,-0.32860851287841797,-0.11304378509521484,-0.06421849131584167
1712257273750455300,6.899455322265625,-0.5017871856689453,-0.19334769248962402,-0.0435832142829895
1712257273760461600,6.909461669921875,-0.5759849548339844,-0.23903107643127441,-0.052476972341537476
1712257273770467800,6.9194677734375,-0.47495460510253906,-0.24087929725646973,-0.09563592076301575
1712257273780474000,6.92947412109375,-0.26067161560058594,-0.19617319107055664,-0.1810658574104309
1712257273790480400,6.93948046875,-0.05691051483154297,-0.11215472221374512,-0.2693554162979126
1712257273800486700,6.949486572265625,0.04618644714355469,0.023463964462280273,-0.3217487633228302
1712257273810493000,6.959492919921875,0.10158348083496094,0.12420058250427246,-0.2825310230255127
1712257273820499200,6.969499267578125,0.12875747680664062,0.14651942253112793,-0.1439989060163498
1712257273830505500,6.97950537109375,0.09439373016357422,0.08090543746948242,0.03617513179779053
1712257273840511700,6.98951171875,-0.039832115173339844,0.033528804779052734,0.1096937358379364
1712257273850518000,6.99951806640625,-0.09251880645751953,-0.013653755187988281,0.1153734028339386
1712257273860524300,7.009524169921875,-0.11173725128173828,-0.031673431396484375,0.05836781859397888
1712257273870530300,7.0195302734375,-0.16465091705322266,-0.043781280517578125,-0.018409401178359985
1712257273880536600,7.02953662109375,-0.13666057586669922,-0.04012107849121094,0.0004723072052001953
1712257273890542800,7.03954296875,-0.11864089965820312,-0.0019409656524658203,0.08176183700561523
1712257273900549000,7.049549072265625,-0.09133148193359375,-0.0013971328735351562,0.10123014450073242
1712257273910555400,7.059555419921875,-0.016408920288085938,0.018327951431274414,0.1272413730621338
1712257273920561700,7.069561767578125,0.10120487213134766,0.09083962440490723,0.1013076901435852
1712257273930568000,7.07956787109375,0.2232980728149414,0.17760491371154785,0.06037706136703491
1712257273940574200,7.08957421875,0.3694620132446289,0.16225361824035645,0.12924495339393616
1712257273950580500,7.09958056640625,0.3346128463745117,0.07715296745300293,0.1845342516899109
1712257273960586800,7.109586669921875,0.2096405029296875,0.05724167823791504,0.12128597497940063
1712257273970593000,7.119593017578125,0.10429668426513672,0.10359549522399902,0.019659429788589478
1712257273980599300,7.129599365234375,0.03252220153808594,0.1027224063873291,-0.05514456331729889
1712257273990605300,7.139605224609375,0.06973934173583984,0.04903459548950195,-0.01765209436416626
1712257274000611600,7.149611572265625,0.10668373107910156,-0.009362220764160156,0.035738199949264526
1712257274010617900,7.159617919921875,0.03998088836669922,-0.007375240325927734,0.040868163108825684
1712257274020624100,7.1696240234375,-0.10992717742919922,-0.0023131370544433594,0.0003902316093444824
1712257274030630400,7.17963037109375,-0.28082752227783203,-0.021281719207763672,-0.01841336488723755
1712257274040636700,7.18963671875,-0.4682159423828125,-0.024324417114257812,-0.025906890630722046
1712257274050643000,7.199642822265625,-0.6865739822387695,-0.014151811599731445,-0.010098308324813843
1712257274060649200,7.209649169921875,-0.7238016128540039,0.024194717407226562,0.14576217532157898
1712257274070655500,7.219655517578125,-0.5024728775024414,0.055847883224487305,0.24752745032310486
1712257274080661800,7.229661865234375,-0.2195606231689453,0.07012200355529785,0.26431524753570557
1712257274090668000,7.23966796875,0.034820556640625,0.09893488883972168,0.27399080991744995
1712257274100674000,7.249674072265625,0.25196361541748047,0.07517099380493164,0.27833396196365356
1712257274110680300,7.259680419921875,0.45136070251464844,0.060843706130981445,0.14545166492462158
1712257274120686600,7.2696865234375,0.6713924407958984,0.045449018478393555,-0.20161765813827515
1712257274130692900,7.27969287109375,0.7662115097045898,0.00914621353149414,-0.4772613048553467
1712257274140699100,7.28969921875,0.8044395446777344,-0.059033870697021484,-0.43556296825408936
1712257274150705400,7.299705322265625,0.683985710144043,-0.1277477741241455,-0.26805904507637024
1712257274160711700,7.309711669921875,0.3317680358886719,-0.04989886283874512,-0.14900079369544983
1712257274170718000,7.319718017578125,-0.04220390319824219,0.10008716583251953,-0.06176207959651947
1712257274180724200,7.32972412109375,-0.3068056106567383,0.1878204345703125,0.020561516284942627
1712257274190730500,7.33973046875,-0.4738950729370117,0.16441082954406738,0.03847983479499817
1712257274200736800,7.34973681640625,-0.5076389312744141,0.11716556549072266,-0.035730451345443726
1712257274210743000,7.359742919921875,-0.4195594787597656,0.027258872985839844,-0.06433504819869995
1712257274220749000,7.3697490234375,-0.22990894317626953,-0.04055643081665039,-0.10130494832992554
1712257274230755300,7.37975537109375,-0.03863048553466797,-0.04152560234069824,-0.14290045201778412
1712257274240761600,7.38976171875,0.02273845672607422,-0.015405654907226562,-0.08666111528873444
1712257274250768000,7.399767822265625,0.05046272277832031,0.023614168167114258,-0.05335409939289093
1712257274260774100,7.409774169921875,0.031043052673339844,0.06570696830749512,-0.028501421213150024
1712257274270780400,7.419780517578125,-0.006615638732910156,0.08768582344055176,-0.006680935621261597
1712257274280786700,7.42978662109375,-0.010445594787597656,0.09469795227050781,0.0030083060264587402
1712257274290793000,7.43979296875,-0.018613815307617188,0.06795907020568848,0.03856649994850159
1712257274300799200,7.44979931640625,-0.040459632873535156,-0.006202220916748047,0.06768035888671875
1712257274310805500,7.459805419921875,-0.09466075897216797,-0.0703885555267334,0.11515617370605469
1712257274320811800,7.469811767578125,-0.08225536346435547,-0.048764705657958984,0.2714754045009613
1712257274330818000,7.479818115234375,-0.12301921844482422,0.06886768341064453,0.31001225113868713
1712257274340824300,7.48982421875,-0.15522193908691406,0.17465496063232422,0.03344261646270752
1712257274350830600,7.49983056640625,-0.01852130889892578,0.13621950149536133,-0.07173988223075867
1712257274360836900,7.5098369140625,0.2098550796508789,0.0755620002746582,-0.019201040267944336
1712257274370843400,7.519843505859375,0.34566497802734375,-0.00481724739074707,-0.041012704372406006
1712257274380849700,7.529849609375,0.3768281936645508,-0.07322263717651367,-0.11790484189987183
1712257274390856000,7.53985595703125,0.2720518112182617,-0.04038715362548828,-0.12953068315982819
1712257274400862200,7.5498623046875,0.08001995086669922,0.06122136116027832,-0.057907938957214355
1712257274410868500,7.559868408203125,-0.07598590850830078,0.08175849914550781,0.006113678216934204
1712257274420874800,7.569874755859375,-0.14495182037353516,0.0747687816619873,0.07363170385360718
1712257274430881000,7.579881103515625,-0.1330718994140625,0.031103134155273438,0.07156309485435486
1712257274440887300,7.58988720703125,-0.09328556060791016,-0.007091045379638672,0.12000340223312378
1712257274450893800,7.599893798828125,-0.15331459045410156,-0.0018510818481445312,0.1477675437927246
1712257274460900000,7.609900146484375,-0.21273040771484375,-0.019323110580444336,0.08845752477645874
1712257274470906400,7.61990625,-0.2576017379760742,0.031226396560668945,0.030980736017227173
1712257274480912600,7.62991259765625,-0.23641109466552734,0.040554046630859375,-0.07692262530326843
1712257274490919000,7.6399189453125,-0.06982135772705078,0.03181338310241699,-0.21734419465065002
1712257274500925200,7.64992529296875,0.08480453491210938,-0.010083436965942383,-0.2880057990550995
1712257274510931500,7.659931396484375,0.22319316864013672,-0.014672040939331055,-0.24386098980903625
1712257274520937700,7.669937744140625,0.3365497589111328,-0.026061296463012695,-0.13940106332302094
1712257274530944000,7.679944091796875,0.3265810012817383,-0.01650381088256836,-0.04586160182952881
1712257274540950500,7.689950439453125,0.17152976989746094,0.00017595291137695312,0.05346331000328064
1712257274550956800,7.699956787109375,0.0193634033203125,0.015523195266723633,0.043564677238464355
1712257274560963000,7.709963134765625,-0.13031959533691406,0.011752843856811523,-0.02548930048942566
1712257274570969300,7.71996923828125,-0.2826414108276367,0.009337902069091797,-0.08284404873847961
1712257274580975600,7.7299755859375,-0.31059837341308594,-0.014675617218017578,-0.08666357398033142
1712257274590982000,7.73998193359375,-0.24901676177978516,-0.036986589431762695,-0.02444690465927124
1712257274600988200,7.74998828125,-0.11828804016113281,-0.015561342239379883,0.04088187217712402
1712257274610994400,7.759994384765625,-0.06589412689208984,0.040426015853881836,0.021601766347885132
1712257274621000700,7.770000732421875,-0.029344558715820312,0.09848880767822266,-0.10699804127216339
1712257274631007000,7.780007080078125,0.1569843292236328,0.10984325408935547,-0.08572068810462952
1712257274641013200,7.79001318359375,0.3170461654663086,0.09167051315307617,0.09864991903305054
1712257274651019500,7.80001953125,0.31499767303466797,0.07648110389709473,0.38720330595970154
1712257274661025800,7.81002587890625,0.2569456100463867,0.01749897003173828,0.5446876287460327
1712257274671031800,7.82003173828125,0.21401023864746094,0.048290252685546875,0.529874861240387
1712257274681038000,7.8300380859375,0.07270622253417969,0.08355402946472168,0.3817789554595947
1712257274691044400,7.84004443359375,-0.02902698516845703,0.05865216255187988,0.13652276992797852
1712257274701050600,7.850050537109375,-0.020958900451660156,-0.030786514282226562,-0.06921914219856262
1712257274711057000,7.860056884765625,-0.012632369995117188,-0.02550959587097168,-0.10011428594589233
1712257274721063200,7.870063232421875,-0.06022453308105469,0.03879499435424805,-0.029564887285232544
1712257274731069400,7.8800693359375,-0.11553192138671875,0.1132199764251709,-0.07905468344688416
1712257274741075700,7.89007568359375,-0.15975093841552734,0.17896556854248047,-0.07923188805580139
1712257274751082000,7.90008203125,-0.32071590423583984,0.19057965278625488,-0.028835445642471313
1712257274761088300,7.910088134765625,-0.5077037811279297,0.10407328605651855,0.0017614960670471191
1712257274771094500,7.920094482421875,-0.6549167633056641,-0.02053999900817871,0.00832858681678772
1712257274781100800,7.930100830078125,-0.6407289505004883,-0.14914774894714355,0.005201488733291626
1712257274791106800,7.94010693359375,-0.5853490829467773,-0.27744102478027344,-0.07431657612323761
1712257274801113000,7.950113037109375,-0.6210479736328125,-0.3167121410369873,-0.16770344972610474
1712257274811119400,7.960119384765625,-0.6614913940429688,-0.2683267593383789,-0.2109457403421402
1712257274821125600,7.970125732421875,-0.6029777526855469,-0.2089066505432129,-0.17432042956352234
1712257274831132000,7.9801318359375,-0.40007781982421875,-0.08647012710571289,-0.18598361313343048
1712257274841138200,7.99013818359375,0.00603485107421875,0.08871173858642578,-0.263920396566391
