time,seconds_elapsed,z,y,x
1712257352939408000,0.044407958984375,0,0,0
1712257352949408300,0.054408203125,0.04829120635986328,0.06359624862670898,0.05113190412521362
1712257352959409000,0.064408935546875,0.11037826538085938,0.11720800399780273,0.17078711092472076
1712257352969410000,0.07441015625,0.05374431610107422,0.11700797080993652,0.25971662998199463
1712257352979412200,0.084412109375,-0.10914421081542969,0.13959002494812012,0.23384825885295868
1712257352989415400,0.09441552734375,-0.2964754104614258,0.1738746166229248,0.19542989134788513
1712257352999419400,0.10441943359375,-0.4570884704589844,0.18319463729858398,0.22686083614826202
1712257353009424600,0.114424560546875,-0.5824728012084961,0.22188448905944824,0.27270758152008057
1712257353019431000,0.124430908203125,-0.6062774658203125,0.26708507537841797,0.30547893047332764
1712257353029438000,0.13443798828125,-0.5242719650268555,0.2624061107635498,0.36549144983291626
1712257353039446300,0.1444462890625,-0.38628101348876953,0.21546363830566406,0.46283164620399475
1712257353049455400,0.154455322265625,-0.31618404388427734,0.10973644256591797,0.5405172109603882
1712257353059465000,0.16446484375,-0.38669872283935547,0.03597664833068848,0.49347227811813354
1712257353069475000,0.17447509765625,-0.46874141693115234,0.10342669486999512,0.3236274719238281
1712257353079485700,0.184485595703125,-0.39261341094970703,0.20620036125183105,0.24287793040275574
1712257353089496300,0.194496337890625,-0.1354684829711914,0.31076693534851074,0.31836503744125366
1712257353099506200,0.204506103515625,0.19632720947265625,0.34231138229370117,0.42543792724609375
1712257353109512200,0.21451220703125,0.49378395080566406,0.2833671569824219,0.47915035486221313
1712257353119518200,0.224518310546875,0.7022199630737305,0.2499244213104248,0.42821043729782104
1712257353129524500,0.2345244140625,0.6501226425170898,0.14373564720153809,0.4150748550891876
1712257353139530500,0.244530517578125,0.45845699310302734,0.055463552474975586,0.38098564743995667
1712257353149536500,0.25453662109375,0.1680278778076172,-0.017880916595458984,0.23794522881507874
1712257353159542500,0.26454248046875,-0.17353534698486328,-0.13847804069519043,0.06663650274276733
1712257353169548800,0.274548828125,-0.34621524810791016,-0.17798614501953125,-0.08339731395244598
1712257353179554800,0.284554931640625,-0.36236000061035156,-0.1522986888885498,-0.11866240203380585
1712257353189560800,0.294560791015625,-0.020354270935058594,-0.08798599243164062,-0.11340370774269104
1712257353199567000,0.304567138671875,0.30024051666259766,-0.0549616813659668,-0.018094658851623535
1712257353209573000,0.314572998046875,0.25071239471435547,-0.053713083267211914,0.06944012641906738
1712257353219579100,0.3245791015625,0.046466827392578125,0.04791617393493652,0.021216005086898804
1712257353229585400,0.33458544921875,-0.13297462463378906,0.13351821899414062,0.020145446062088013
1712257353239591400,0.34459130859375,-0.28037548065185547,0.09912538528442383,0.03441157937049866
1712257353249597400,0.354597412109375,-0.2952756881713867,0.004765987396240234,-0.010498374700546265
1712257353259603500,0.364603515625,-0.23261356353759766,-0.06460022926330566,-0.12848946452140808
1712257353269609700,0.374609619140625,-0.15906143188476562,-0.10163593292236328,-0.194841206073761
1712257353279615700,0.38461572265625,-0.060296058654785156,-0.15505027770996094,-0.24076536297798157
1712257353289621800,0.394621826171875,0.07761287689208984,-0.17905831336975098,-0.1892540603876114
1712257353299628000,0.4046279296875,0.3896827697753906,-0.12042975425720215,0.034690022468566895
1712257353309634000,0.414634033203125,0.5557460784912109,-0.05426287651062012,0.34564703702926636
1712257353319640000,0.42464013671875,0.3790006637573242,0.005407094955444336,0.5249608755111694
1712257353329646300,0.434646240234375,0.02065563201904297,0.11790180206298828,0.3859025239944458
1712257353339652400,0.44465234375,-0.25963497161865234,0.15938282012939453,0.25818800926208496
1712257353349658400,0.454658447265625,-0.4087200164794922,0.12420916557312012,0.18880507349967957
1712257353359664400,0.464664306640625,-0.34105396270751953,0.08467268943786621,0.11475098133087158
1712257353369670700,0.474670654296875,-0.1451864242553711,0.0536494255065918,0.04863670468330383
1712257353379676700,0.4846767578125,0.008481979370117188,0.005388498306274414,0.06994163990020752
1712257353389682700,0.4946826171875,0.032296180725097656,-0.03702282905578613,0.03570470213890076
1712257353399689000,0.50468896484375,0.01814746856689453,-0.027029991149902344,-0.0716116726398468
1712257353409695000,0.514695068359375,-0.05665111541748047,-0.049889564514160156,-0.15824972093105316
1712257353419701000,0.524700927734375,-0.007828712463378906,-0.08167767524719238,-0.1807558834552765
1712257353429707300,0.534707275390625,0.20977306365966797,-0.09115386009216309,-0.07643777132034302
1712257353439713300,0.54471337890625,0.32623767852783203,-0.048270463943481445,-0.05840088427066803
1712257353449719300,0.55471923828125,0.3954906463623047,0.040810585021972656,-0.1135752946138382
1712257353459725600,0.5647255859375,0.3573932647705078,0.07650566101074219,-0.023207828402519226
1712257353469731600,0.574731689453125,0.16642379760742188,0.04684567451477051,0.12406066060066223
1712257353479737900,0.58473779296875,-0.10992717742919922,0.011818408966064453,0.12449610233306885
1712257353489744000,0.594743896484375,-0.3398313522338867,0.0028524398803710938,0.03419342637062073
1712257353499750100,0.604750244140625,-0.4307975769042969,-0.021082639694213867,-0.042422398924827576
1712257353509756200,0.614756103515625,-0.3947000503540039,-0.06904959678649902,-0.10195378959178925
1712257353519762400,0.624762451171875,-0.27567577362060547,-0.08504700660705566,-0.16029450297355652
1712257353529768400,0.6347685546875,-0.06978130340576172,-0.0897836685180664,-0.2759110927581787
1712257353539774700,0.644774658203125,0.20839786529541016,-0.09052801132202148,-0.29358452558517456
1712257353549780700,0.65478076171875,0.3700218200683594,-0.0846867561340332,-0.21390467882156372
1712257353559787000,0.664787109375,0.4031505584716797,-0.07317113876342773,-0.10751529037952423
1712257353569793300,0.674793212890625,0.2768516540527344,-0.027568340301513672,-0.016461074352264404
1712257353579799300,0.68479931640625,0.04961109161376953,0.044064998626708984,0.007056623697280884
1712257353589805600,0.6948056640625,-0.11743736267089844,0.06300139427185059,0.06327599287033081
1712257353599811600,0.7048115234375,-0.26817893981933594,0.017325162887573242,0.1569126844406128
1712257353609817900,0.71481787109375,-0.38451671600341797,0.008241653442382812,0.0896294116973877
1712257353619823900,0.724823974609375,-0.44381141662597656,-0.0016367435455322266,0.005213886499404907
1712257353629830100,0.734830078125,-0.3480491638183594,-0.012470006942749023,-0.08259786665439606
1712257353639836200,0.744836181640625,-0.15575885772705078,-0.011570930480957031,-0.10383664071559906
1712257353649842400,0.754842529296875,0.08034610748291016,0.0037147998809814453,-0.026669621467590332
1712257353659848400,0.764848388671875,0.3130960464477539,0.06426358222961426,-0.026146262884140015
1712257353669854700,0.774854736328125,0.45821666717529297,0.04093313217163086,-0.03887900710105896
1712257353679860700,0.78486083984375,0.3852682113647461,-0.022504329681396484,-0.02532544732093811
1712257353689867000,0.794866943359375,0.21970748901367188,-0.02500605583190918,-0.18222402036190033
1712257353699873000,0.804873046875,0.09454536437988281,-0.04181408882141113,-0.21551600098609924
1712257353709879300,0.81487939453125,-0.08517074584960938,-0.10528373718261719,-0.1372438669204712
1712257353719885300,0.82488525390625,-0.26229381561279297,-0.08655714988708496,-0.1163499504327774
1712257353729891600,0.8348916015625,-0.44197750091552734,-0.018721342086791992,-0.035895779728889465
1712257353739897600,0.844897705078125,-0.5445327758789062,0.08432984352111816,-0.018925637006759644
1712257353749904000,0.85490380859375,-0.4770326614379883,0.1465473175048828,0.058132946491241455
1712257353759910000,0.864909912109375,-0.335968017578125,0.12955594062805176,0.08575496077537537
1712257353769916200,0.874916259765625,-0.23515892028808594,0.06176900863647461,-0.019541814923286438
1712257353779922200,0.884922119140625,-0.08893680572509766,-0.028265714645385742,-0.0685240626335144
1712257353789928400,0.894928466796875,0.03640460968017578,-0.11306238174438477,-0.08463560044765472
1712257353799934500,0.9049345703125,0.04240894317626953,-0.17895245552062988,-0.16538217663764954
1712257353809940700,0.914940673828125,-0.0033826828002929688,-0.15932679176330566,-0.31416863203048706
1712257353819946800,0.92494677734375,0.017515182495117188,-0.12591767311096191,-0.398759663105011
1712257353829953000,0.934953125,0.11383533477783203,-0.16477608680725098,-0.37969303131103516
1712257353839959000,0.944958984375,0.16693687438964844,-0.18612003326416016,-0.26430121064186096
1712257353849965300,0.95496533203125,0.3094968795776367,-0.07753658294677734,-0.1254895031452179
1712257353859971300,0.964971435546875,0.41803550720214844,-0.030925512313842773,0.10937182605266571
1712257353869977600,0.9749775390625,0.3233976364135742,0.030618667602539062,0.28431281447410583
1712257353879983600,0.984983642578125,0.09890174865722656,0.12769865989685059,0.2865370512008667
1712257353889990000,0.994989990234375,-0.023370742797851562,0.1726827621459961,0.21089883148670197
1712257353899996000,1.004995849609375,0.01605987548828125,0.17125821113586426,0.11018919944763184
1712257353910002200,1.015002197265625,0.054434776306152344,0.10047340393066406,0.10398846864700317
1712257353920008200,1.02500830078125,0.11999797821044922,0.05077052116394043,0.038402408361434937
1712257353930014500,1.035014404296875,0.22186756134033203,0.04477882385253906,0.05244216322898865
1712257353940020500,1.0450205078125,0.23714828491210938,0.05302786827087402,0.1412765085697174
1712257353950026800,1.05502685546875,0.2756681442260742,0.10802721977233887,0.2091159224510193
1712257353960032800,1.06503271484375,0.3893604278564453,0.16062712669372559,0.2588934898376465
1712257353970039000,1.0750390625,0.4129486083984375,0.1571037769317627,0.29339399933815
1712257353980045000,1.085045166015625,0.2538480758666992,0.15007853507995605,0.2126341462135315
1712257353990051300,1.09505126953125,-0.033753395080566406,0.10861968994140625,0.15331220626831055
1712257354000057300,1.105057373046875,-0.3498954772949219,0.05025744438171387,0.17768719792366028
1712257354010063600,1.115063720703125,-0.516118049621582,0.0012476444244384766,0.1589653193950653
1712257354020069600,1.125069580078125,-0.5211706161499023,-0.028267860412597656,0.08044689893722534
1712257354030076000,1.135075927734375,-0.35818004608154297,-0.04850482940673828,-0.01838606595993042
1712257354040082000,1.14508203125,-0.08082962036132812,-0.08556318283081055,-0.09114903211593628
1712257354050088200,1.155088134765625,0.20186233520507812,-0.08575630187988281,-0.13055555522441864
1712257354060094200,1.16509423828125,0.3210296630859375,-0.03760194778442383,-0.15113559365272522
1712257354070100500,1.1751005859375,0.26067161560058594,-0.026960372924804688,-0.1532641053199768
1712257354080106500,1.1851064453125,0.12715530395507812,-0.02899336814880371,-0.1334078311920166
1712257354090112800,1.19511279296875,-0.06951522827148438,-0.03234243392944336,0.016550153493881226
1712257354100118800,1.205118896484375,-0.35284423828125,-0.0014357566833496094,0.12257090210914612
1712257354110125000,1.215125,-0.49631214141845703,0.037424564361572266,0.07735627889633179
1712257354120131000,1.225131103515625,-0.43643760681152344,0.037316322326660156,0.038472980260849
1712257354130137300,1.235137451171875,-0.30322933197021484,0.002241849899291992,0.019444763660430908
1712257354140143400,1.245143310546875,-0.13500022888183594,-0.016951322555541992,-0.07471148669719696
1712257354150149600,1.255149658203125,0.058959007263183594,-0.041182518005371094,-0.14037325978279114
1712257354160155600,1.26515576171875,0.17986679077148438,-0.0717155933380127,-0.15093690156936646
1712257354170162000,1.275161865234375,0.19611454010009766,-0.03821396827697754,-0.10692398250102997
1712257354180168000,1.28516796875,0.18935775756835938,0.011448144912719727,-0.04109297692775726
1712257354190174200,1.29517431640625,0.1455974578857422,0.044602155685424805,0.000810772180557251
1712257354200180200,1.30518017578125,0.06044960021972656,0.04344916343688965,-0.022721439599990845
1712257354210186500,1.3151865234375,-0.023342132568359375,0.032990455627441406,-0.06365473568439484
1712257354220192500,1.325192626953125,-0.1345205307006836,0.0381007194519043,-0.07359182834625244
1712257354230198800,1.33519873046875,-0.19764041900634766,0.007692098617553711,-0.0063163042068481445
1712257354240204800,1.345204833984375,-0.19940185546875,-0.010390520095825195,0.032127708196640015
1712257354250211000,1.355211181640625,-0.15486526489257812,0.011609554290771484,0.042766571044921875
1712257354260217300,1.36521728515625,-0.09278297424316406,0.02988147735595703,0.017120361328125
1712257354270223400,1.375223388671875,-0.022489547729492188,0.029404878616333008,-0.030707716941833496
1712257354280229600,1.385229736328125,0.05164146423339844,0.05643129348754883,-0.10178573429584503
1712257354290235600,1.395235595703125,0.12050056457519531,0.06255841255187988,-0.1411459594964981
1712257354300242000,1.405241943359375,0.15152835845947266,0.019094228744506836,-0.07951627671718597
1712257354310248000,1.415248046875,0.04162406921386719,-0.0022330284118652344,0.021584421396255493
1712257354320254000,1.42525390625,-0.1794271469116211,-0.004481077194213867,0.08850884437561035
1712257354330260200,1.43526025390625,-0.22806453704833984,0.014158487319946289,0.13670364022254944
1712257354340266200,1.445266357421875,-0.13045978546142578,0.043128013610839844,0.19617071747779846
1712257354350272300,1.455272216796875,-0.16668987274169922,0.058203935623168945,0.22017580270767212
1712257354360278500,1.465278564453125,-0.2027721405029297,0.0647270679473877,0.16514122486114502
1712257354370284500,1.475284423828125,-0.13497161865234375,0.07198190689086914,0.15807783603668213
1712257354380290600,1.48529052734375,-0.1436920166015625,0.07928228378295898,0.12271597981452942
1712257354390296600,1.495296630859375,-0.24689483642578125,0.040637969970703125,0.05946087837219238
1712257354400302800,1.505302734375,-0.06156349182128906,0.008699178695678711,0.06521052122116089
1712257354410308900,1.515308837890625,0.06919002532958984,0.03783917427062988,-0.02039012312889099
1712257354420315000,1.52531494140625,0.22195911407470703,0.022523164749145508,-0.11133076250553131
1712257354430321200,1.535321044921875,0.2647686004638672,-0.04189276695251465,-0.06591242551803589
1712257354440327200,1.5453271484375,0.21341228485107422,-0.07417035102844238,-0.03616562485694885
1712257354450333200,1.555333251953125,0.135040283203125,-0.04110980033874512,0.04112917184829712
1712257354460339500,1.56533935546875,0.067230224609375,-0.017819881439208984,0.1764163374900818
1712257354470345500,1.575345458984375,0.018990516662597656,0.03887438774108887,0.24631741642951965
1712257354480351500,1.5853515625,0.07474803924560547,0.11908626556396484,0.19916677474975586
1712257354490357800,1.595357666015625,0.23809337615966797,0.1643815040588379,0.12478232383728027
1712257354500363800,1.60536376953125,0.30071353912353516,0.1265108585357666,0.027710378170013428
1712257354510369800,1.615369873046875,0.22670269012451172,0.08675599098205566,-0.17260205745697021
1712257354520375800,1.625375732421875,0.10287857055664062,0.00811004638671875,-0.25821539759635925
1712257354530382000,1.635382080078125,-0.009107589721679688,-0.04648852348327637,-0.2264428585767746
1712257354540388000,1.64538818359375,-0.15224838256835938,-0.07168197631835938,-0.18654978275299072
1712257354550394000,1.65539404296875,-0.1993846893310547,-0.043071746826171875,-0.1387849599123001
1712257354560400400,1.665400390625,-0.13794612884521484,-0.027678966522216797,-0.06827031075954437
1712257354570406400,1.675406494140625,-0.07300472259521484,-0.016773223876953125,0.10957002639770508
1712257354580412400,1.685412353515625,-0.11301708221435547,0.027541160583496094,0.22961890697479248
1712257354590418700,1.695418701171875,-0.08675956726074219,0.06712746620178223,0.2504374384880066
1712257354600424700,1.7054248046875,-0.08936309814453125,0.07341408729553223,0.24902912974357605
1712257354610430700,1.7154306640625,-0.1488037109375,0.08521151542663574,0.24894574284553528
1712257354620436700,1.725436767578125,-0.09943389892578125,0.08861422538757324,0.13190770149230957
1712257354630443000,1.735443115234375,-0.02269744873046875,0.021510839462280273,0.044961750507354736
1712257354640449000,1.745448974609375,-0.012996673583984375,-0.0213167667388916,-0.08349329233169556
1712257354650455000,1.755455078125,0.020422935485839844,-0.05474042892456055,-0.24956607818603516
1712257354660461300,1.76546142578125,0.0444793701171875,-0.06544137001037598,-0.36430132389068604
1712257354670467300,1.77546728515625,0.021654129028320312,-0.044368743896484375,-0.32966122031211853
1712257354680473600,1.7854736328125,0.032652854919433594,-0.01062464714050293,-0.1331656128168106
1712257354690479600,1.795479736328125,0.020200729370117188,0.050145864486694336,0.08287161588668823
1712257354700486000,1.80548583984375,-0.10513687133789062,0.13830804824829102,0.3248758018016815
1712257354710492000,1.815491943359375,-0.29055023193359375,0.20368051528930664,0.48680341243743896
1712257354720498200,1.825498291015625,-0.38045310974121094,0.18271613121032715,0.5663822889328003
1712257354730504200,1.835504150390625,-0.26819801330566406,0.0676116943359375,0.4844636023044586
1712257354740510500,1.845510498046875,0.006081581115722656,0.013168573379516602,0.18462985754013062
1712257354750516500,1.8555166015625,0.25727272033691406,-0.01757359504699707,-0.13438475131988525
1712257354760522800,1.865522705078125,0.4065523147583008,-0.03647208213806152,-0.3851478397846222
1712257354770528800,1.87552880859375,0.4230203628540039,-0.03054332733154297,-0.49885284900665283
1712257354780535000,1.88553515625,0.3653554916381836,-0.018948078155517578,-0.4638282060623169
1712257354790541000,1.895541015625,0.2248821258544922,-0.005259513854980469,-0.3097805976867676
1712257354800547300,1.90554736328125,0.11064529418945312,0.0073702335357666016,-0.01836371421813965
1712257354810553300,1.91555322265625,-0.020644187927246094,0.019954204559326172,0.2798507809638977
1712257354820559600,1.9255595703125,-0.15995216369628906,0.052916765213012695,0.3469867408275604
1712257354830565600,1.935565673828125,-0.2462596893310547,0.09266972541809082,0.2806684076786041
1712257354840572000,1.945572021484375,-0.2144775390625,0.07780718803405762,0.17187929153442383
1712257354850578000,1.955577880859375,-0.15543174743652344,0.05019855499267578,-0.009165048599243164
1712257354860584200,1.965584228515625,-0.11611652374267578,-0.019410133361816406,-0.1416686475276947
1712257354870590200,1.975590087890625,-0.07715415954589844,-0.07897496223449707,-0.23297597467899323
1712257354880596500,1.985596435546875,0.05597877502441406,-0.06830430030822754,-0.2896423637866974
1712257354890602500,1.9956025390625,0.1409759521484375,-0.09360456466674805,-0.25046437978744507
1712257354900608800,2.00560888671875,0.07026481628417969,-0.11644506454467773,-0.11160553991794586
1712257354910614800,2.01561474609375,-0.07892036437988281,-0.07393598556518555,-0.04674331843852997
1712257354920621000,2.02562109375,-0.17884349822998047,-0.012514114379882812,0.022604525089263916
1712257354930627000,2.035626953125,-0.2544212341308594,0.017025232315063477,0.20652511715888977
1712257354940633300,2.04563330078125,-0.2969484329223633,0.10530996322631836,0.3121124804019928
1712257354950639400,2.055639404296875,-0.2740468978881836,0.15717267990112305,0.34168410301208496
1712257354960645600,2.065645751953125,-0.2052927017211914,0.1724393367767334,0.28075069189071655
1712257354970651600,2.075651611328125,-0.11920356750488281,0.1506803035736084,0.13212475180625916
1712257354980658000,2.085657958984375,0.09766292572021484,0.1097569465637207,-0.1589106023311615
1712257354990664000,2.095663818359375,0.3311748504638672,0.03323221206665039,-0.41348797082901
1712257355000670200,2.105670166015625,0.3932456970214844,-0.051460981369018555,-0.5289605855941772
1712257355010676200,2.11567626953125,0.28162670135498047,-0.08200263977050781,-0.5112285614013672
1712257355020682500,2.1256826171875,0.09722709655761719,-0.10436463356018066,-0.3346356451511383
1712257355030688500,2.1356884765625,-0.12691211700439453,-0.1300492286682129,-0.08327978849411011
1712257355040694800,2.14569482421875,-0.3157157897949219,-0.11908197402954102,0.121514230966568
1712257355050700800,2.15570068359375,-0.3666667938232422,-0.06152176856994629,0.11713418364524841
1712257355060707000,2.16570703125,-0.27709388732910156,-0.02935004234313965,0.056238189339637756
1712257355070713000,2.175713134765625,-0.13324642181396484,-0.014742612838745117,-0.01580101251602173
1712257355080719400,2.18571923828125,-0.0058155059814453125,0.022968530654907227,-0.12043031305074692
1712257355090725400,2.195725341796875,0.06835269927978516,0.020865917205810547,-0.18845871090888977
1712257355100731600,2.205731689453125,0.0763254165649414,-0.016446590423583984,-0.18367254734039307
1712257355110737700,2.215737548828125,0.042598724365234375,-0.017364501953125,-0.16405628621578217
1712257355120744000,2.225743896484375,0.028932571411132812,0.008478403091430664,-0.12038153409957886
1712257355130750200,2.235750244140625,-0.007554054260253906,0.042176008224487305,0.042535483837127686
1712257355140756200,2.245756103515625,-0.057464599609375,0.05156397819519043,0.254341721534729
1712257355150762500,2.255762451171875,-0.11632156372070312,0.08986234664916992,0.35674455761909485
1712257355160768500,2.2657685546875,-0.18913936614990234,0.10592818260192871,0.32853612303733826
1712257355170774800,2.27577490234375,-0.21007156372070312,0.07745933532714844,0.18471670150756836
1712257355180780800,2.28578076171875,-0.06672000885009766,0.04223012924194336,0.016122490167617798
1712257355190787000,2.295787109375,0.09758377075195312,0.05516386032104492,-0.07376191020011902
1712257355200793000,2.30579296875,0.22179603576660156,0.024576425552368164,-0.14663520455360413
1712257355210799400,2.31579931640625,0.2882709503173828,-0.007673978805541992,-0.14783112704753876
1712257355220805400,2.325805419921875,0.17093563079833984,-0.013606548309326172,-0.12036526203155518
1712257355230811600,2.335811767578125,-0.014741897583007812,-0.010862112045288086,-0.08434441685676575
1712257355240817700,2.345817626953125,-0.13167476654052734,-0.030916690826416016,-0.0312156081199646
1712257355250824000,2.355823974609375,-0.1105031967163086,-0.03534865379333496,0.038052886724472046
1712257355260830000,2.365829833984375,-0.019153594970703125,0.0030465126037597656,0.10457956790924072
1712257355270836200,2.375836181640625,0.051947593688964844,0.03116893768310547,0.17858952283859253
1712257355280842200,2.38584228515625,0.0465850830078125,0.08693408966064453,0.19948530197143555
1712257355290848500,2.3958486328125,0.03170967102050781,0.11857223510742188,0.1324341595172882
1712257355300854500,2.4058544921875,0.05447578430175781,0.10785698890686035,0.06395497918128967
1712257355310860800,2.41586083984375,0.06258106231689453,0.05983304977416992,-0.024078845977783203
1712257355320866800,2.42586669921875,0.06116962432861328,0.02174687385559082,-0.15062600374221802
1712257355330873000,2.435873046875,0.04588603973388672,-0.01634669303894043,-0.1990705132484436
1712257355340879000,2.445879150390625,0.11134719848632812,-0.02657318115234375,-0.24370887875556946
1712257355350885400,2.455885498046875,0.24273967742919922,-0.02515411376953125,-0.22479473054409027
1712257355360891400,2.465891357421875,0.22278404235839844,-0.036905765533447266,-0.14816659688949585
1712257355370897700,2.475897705078125,0.053610801696777344,-0.013472795486450195,-0.14673492312431335
1712257355380903700,2.485903564453125,-0.15941619873046875,-0.014822006225585938,-0.11487080156803131
1712257355390910000,2.495909912109375,-0.350494384765625,-0.03371787071228027,-0.05634693801403046
1712257355400916000,2.505916015625,-0.48314380645751953,-0.05373430252075195,0.05337876081466675
1712257355410922200,2.515922119140625,-0.5212278366088867,-0.03125810623168945,0.12644422054290771
1712257355420928300,2.52592822265625,-0.4287872314453125,-0.009198188781738281,0.17454451322555542
1712257355430934500,2.5359345703125,-0.1839427947998047,0.048873186111450195,0.11706694960594177
1712257355440940500,2.5459404296875,0.07069778442382812,0.07347488403320312,0.06762909889221191
1712257355450946800,2.55594677734375,0.1993579864501953,0.07239437103271484,-0.018999040126800537
1712257355460952800,2.565952880859375,0.3224000930786133,0.06366753578186035,-0.10232765972614288
1712257355470959000,2.575958984375,0.3367462158203125,-0.0054073333740234375,-0.1407565176486969
1712257355480965000,2.585965087890625,0.19691753387451172,-0.06733012199401855,-0.16377070546150208
1712257355490971400,2.595971435546875,0.027238845825195312,-0.07810139656066895,-0.1903456151485443
1712257355500977400,2.605977294921875,-0.15829181671142578,-0.06999039649963379,-0.10141804814338684
1712257355510983700,2.615983642578125,-0.2896413803100586,-0.03660321235656738,-0.032756656408309937
1712257355520989700,2.62598974609375,-0.33046627044677734,0.008437871932983398,0.0882672667503357
1712257355530996000,2.635995849609375,-0.3105201721191406,0.04597115516662598,0.14878252148628235
1712257355541002000,2.646001953125,-0.2778167724609375,0.0664987564086914,0.15880760550498962
1712257355551008000,2.656008056640625,-0.19473648071289062,0.09345436096191406,0.2648026943206787
1712257355561014300,2.66601416015625,-0.15610313415527344,0.10729241371154785,0.3297416567802429
1712257355571020300,2.676020263671875,-0.1280984878540039,0.12224340438842773,0.29593953490257263
1712257355581026300,2.6860263671875,-0.006763458251953125,0.13793063163757324,0.19197511672973633
1712257355591032300,2.6960322265625,0.1739635467529297,0.11527824401855469,0.05118238925933838
1712257355601038600,2.70603857421875,0.2677640914916992,0.039209604263305664,-0.03221866488456726
1712257355611044600,2.716044677734375,0.2526512145996094,-0.00028061866760253906,-0.11027991771697998
1712257355621050600,2.726050537109375,0.14897537231445312,-0.007824420928955078,-0.13528703153133392
1712257355631057000,2.736056884765625,0.04245567321777344,-0.02970409393310547,-0.10824030637741089
1712257355641063000,2.74606298828125,-0.029659271240234375,0.0013811588287353516,-0.1046556830406189
1712257355651069000,2.75606884765625,-0.08232402801513672,0.019277095794677734,-0.011008977890014648
1712257355661075200,2.7660751953125,-0.059600830078125,0.02476048469543457,0.1012360155582428
1712257355671081200,2.776081298828125,0.08932781219482422,0.0643310546875,0.19009441137313843
1712257355681087200,2.786087158203125,0.2216196060180664,0.0983879566192627,0.2701701521873474
1712257355691093200,2.79609326171875,0.3380298614501953,0.16823816299438477,0.21368584036827087
1712257355701099500,2.806099609375,0.40166282653808594,0.18259286880493164,0.1490594744682312
1712257355711105500,2.81610546875,0.2959327697753906,0.14179062843322754,0.10404098033905029
1712257355721111600,2.826111572265625,0.11740303039550781,0.09511971473693848,-0.05028143525123596
1712257355731117800,2.836117919921875,-0.02974224090576172,0.020822525024414062,-0.13379614055156708
1712257355741123800,2.846123779296875,-0.12741470336914062,-0.04719352722167969,-0.06670993566513062
1712257355751129900,2.8561298828125,-0.1910076141357422,-0.06561565399169922,-0.010572671890258789
1712257355761136000,2.86613623046875,-0.21181011199951172,-0.030196666717529297,0.0442068874835968
1712257355771142100,2.87614208984375,-0.2661170959472656,0.0210263729095459,0.13163188099861145
1712257355781148200,2.886148193359375,-0.22627639770507812,0.06893372535705566,0.12046369910240173
1712257355791154200,2.896154296875,-0.19736099243164062,0.07102251052856445,0.10150322318077087
1712257355801160400,2.906160400390625,-0.17436981201171875,0.06543421745300293,0.051467299461364746
1712257355811166500,2.91616650390625,-0.010733604431152344,0.09356069564819336,-0.10627782344818115
1712257355821172500,2.92617236328125,0.09422016143798828,0.09654569625854492,-0.1180257797241211
1712257355831178800,2.9361787109375,0.1324453353881836,0.05971097946166992,-0.16126008331775665
1712257355841184800,2.946184814453125,0.024900436401367188,0.021506547927856445,-0.1869489550590515
1712257355851190800,2.956190673828125,-0.09485912322998047,-0.03051280975341797,-0.15548238158226013
1712257355861197000,2.966197021484375,-0.1610574722290039,-0.019903182983398438,-0.10036036372184753
1712257355871203000,2.976203125,-0.24078369140625,-0.003587961196899414,0.11091494560241699
1712257355881209300,2.986209228515625,-0.33422374725341797,0.033342838287353516,0.17640316486358643
1712257355891215400,2.99621533203125,-0.32379722595214844,0.07729983329772949,0.13244318962097168
1712257355901221600,3.0062216796875,-0.11686897277832031,0.061884164810180664,0.017475813627243042
1712257355911227600,3.0162275390625,0.02971172332763672,0.21686553955078125,-0.14242209494113922
1712257355921234000,3.02623388671875,0.15980148315429688,0.12398982048034668,0.05700194835662842
1712257355931240000,3.036239990234375,0.20831298828125,0.07319164276123047,0.09114554524421692
1712257355941246200,3.04624609375,0.0022363662719726562,0.19133901596069336,-0.0607253760099411
1712257355951252200,3.056252197265625,-0.026060104370117188,-0.10222077369689941,0.14251625537872314
1712257355961258500,3.066258544921875,0.14921188354492188,-0.14723992347717285,0.12137439846992493
1712257355971264500,3.076264404296875,0.27106285095214844,-0.11936497688293457,-0.030086055397987366
1712257355981270800,3.086270751953125,0.6658258438110352,-0.021230220794677734,-0.27923473715782166
1712257355991276800,3.09627685546875,1.4765033721923828,0.17468929290771484,-0.406078577041626
1712257356001283000,3.106282958984375,1.9308595657348633,0.14499354362487793,-0.08909481763839722
1712257356011289000,3.1162890625,1.9831809997558594,0.06198692321777344,0.060067206621170044
1712257356021295400,3.12629541015625,1.469965934753418,0.05604052543640137,0.17640385031700134
1712257356031301400,3.13630126953125,0.7842988967895508,0.024564743041992188,0.03307701647281647
1712257356041307600,3.1463076171875,0.2941303253173828,-0.020850181579589844,-0.010995715856552124
1712257356051313700,3.156313720703125,0.29192447662353516,-0.1243593692779541,-0.09738318622112274
1712257356061320000,3.16631982421875,0.8130016326904297,-0.11329770088195801,-0.326856791973114
1712257356071326000,3.176325927734375,1.6162939071655273,-0.06771159172058105,-0.6063177585601807
1712257356081332200,3.186332275390625,2.1074953079223633,-0.11070394515991211,-0.5530247688293457
1712257356091338200,3.196338134765625,2.5157299041748047,-0.11580991744995117,-0.5909554958343506
1712257356101344500,3.206344482421875,2.727752685546875,0.040413856506347656,-0.17120710015296936
1712257356111350500,3.2163505859375,2.543893814086914,0.33017969131469727,0.16010403633117676
1712257356121356800,3.226356689453125,2.43198299407959,0.5475444793701172,0.2044007033109665
1712257356131362800,3.23636279296875,2.1140079498291016,0.5436787605285645,0.1429891735315323
1712257356141369000,3.246369140625,1.5366544723510742,0.3233513832092285,-0.19927382469177246
1712257356151375000,3.256375,1.8069496154785156,0.09616804122924805,-0.7725417613983154
1712257356161381400,3.26638134765625,3.0127782821655273,-0.11151933670043945,-0.6804827451705933
1712257356171387400,3.276387451171875,3.2495412826538086,-0.47982215881347656,-0.016008839011192322
1712257356181393700,3.2863935546875,3.1140403747558594,-0.6990022659301758,0.19828049838542938
1712257356191399700,3.296399658203125,2.7511167526245117,-0.9586472511291504,0.41821378469467163
1712257356201406000,3.306406005859375,2.035879135131836,-1.1536359786987305,0.6668383479118347
1712257356211412000,3.316411865234375,1.2298202514648438,-1.2600407600402832,0.3623570203781128
1712257356221418200,3.326418212890625,0.4496779441833496,-1.5595755577087402,-0.08590075373649597
1712257356231424300,3.33642431640625,-0.2129960060119629,-1.8320393562316895,-0.5885964035987854
1712257356241430500,3.346430419921875,-0.35606908798217773,-2.1031289100646973,-0.8914618492126465
1712257356251436500,3.3564365234375,0.3626852035522461,-2.054079532623291,-1.2547143697738647
1712257356261442800,3.36644287109375,0.7431282997131348,-1.9685478210449219,-1.0508674383163452
1712257356271448800,3.37644873046875,0.4161195755004883,-2.249084949493408,-0.3704422414302826
1712257356281455000,3.386455078125,-0.1713242530822754,-2.2842459678649902,0.19481629133224487
1712257356291461000,3.396461181640625,-1.4793767929077148,-2.264279842376709,0.7110391855239868
1712257356301467400,3.40646728515625,-2.935114860534668,-2.3098678588867188,1.07358980178833
1712257356311473400,3.416473388671875,-3.7337493896484375,-2.0175671577453613,0.9188922047615051
1712257356321479700,3.426479736328125,-3.1628029346466064,-1.5333609580993652,0.6031247973442078
1712257356331485700,3.436485595703125,-2.2232916355133057,-1.1303205490112305,0.5681997537612915
1712257356341492000,3.446491943359375,-2.0649263858795166,-1.0512704849243164,0.7259259223937988
1712257356351498000,3.456498046875,-2.8123600482940674,-1.0153131484985352,0.5559712648391724
1712257356361504300,3.466504150390625,-3.8823628425598145,-0.9994277954101562,0.11282539367675781
1712257356371510300,3.47651025390625,-4.15525484085083,-1.0043439865112305,0.09110036492347717
1712257356381516500,3.4865166015625,-3.438054323196411,-0.8255419731140137,-0.14055690169334412
1712257356391522600,3.4965224609375,-1.652604103088379,-0.6466202735900879,-0.09558430314064026
1712257356401528800,3.50652880859375,-0.3200392723083496,-0.28493499755859375,0.06285950541496277
1712257356411535000,3.51653515625,-0.2959136962890625,-0.3936500549316406,0.6050981879234314
1712257356421541000,3.526541015625,-1.1721713542938232,-0.5136852264404297,0.7668805122375488
1712257356431547400,3.53654736328125,-2.4632174968719482,-0.2843008041381836,0.5275757908821106
1712257356441553400,3.546553466796875,-3.121288299560547,-0.28243255615234375,0.6032876372337341
1712257356451559700,3.5565595703125,-3.1054062843322754,-0.21435165405273438,0.5880281925201416
1712257356461565700,3.566565673828125,-2.20845365524292,-0.20210838317871094,0.6107723712921143
1712257356471572000,3.576572021484375,-0.6124911308288574,-0.02721405029296875,0.20295549929141998
1712257356481578000,3.586577880859375,0.5571355819702148,0.040595054626464844,-0.03818182647228241
1712257356491584300,3.596584228515625,0.9643006324768066,0.09867668151855469,0.011242512613534927
1712257356501590300,3.60659033203125,0.6188311576843262,0.18150043487548828,0.2785699665546417
1712257356511596500,3.616596435546875,-0.23129653930664062,0.17325496673583984,0.3947378695011139
1712257356521602600,3.6266025390625,-1.1398179531097412,0.18830585479736328,0.4037487208843231
1712257356531608800,3.63660888671875,-1.1657888889312744,0.17148971557617188,0.22022254765033722
1712257356541614800,3.64661474609375,-0.5836830139160156,0.22070693969726562,-0.23289912939071655
1712257356551621000,3.65662109375,0.020116329193115234,0.10293960571289062,-0.4913787245750427
1712257356561627100,3.666627197265625,0.34508371353149414,0.0262603759765625,-0.6355019211769104
1712257356571633400,3.67663330078125,0.2599325180053711,0.02322673797607422,-0.5741642117500305
1712257356581639400,3.686639404296875,-0.10801315307617188,0.023392677307128906,-0.041928648948669434
1712257356591645700,3.696645751953125,-0.61061692237854,0.1773996353149414,0.5618830919265747
1712257356601651700,3.706651611328125,-1.041260004043579,0.29081153869628906,0.8838988542556763
1712257356611658000,3.716657958984375,-1.4791431427001953,0.2884817123413086,1.0309797525405884
1712257356621664000,3.7266640625,-1.6538593769073486,0.2336282730102539,0.9067404866218567
1712257356631670300,3.736670166015625,-1.4072608947753906,0.044638633728027344,0.6289451718330383
1712257356641676300,3.74667626953125,-0.8993792533874512,-0.11255931854248047,0.24252468347549438
1712257356651682600,3.7566826171875,-0.6908323764801025,-0.30179882049560547,0.08076727390289307
1712257356661688600,3.7666884765625,-0.8680624961853027,-0.46029186248779297,0.14045286178588867
1712257356671694800,3.77669482421875,-1.3284471035003662,-0.5052337646484375,0.1127822995185852
1712257356681700900,3.786700927734375,-2.1194095611572266,-0.6014347076416016,0.348132461309433
1712257356691707100,3.79670703125,-2.9694766998291016,-0.5686511993408203,0.5755243897438049
1712257356701713200,3.806713134765625,-3.4379568099975586,-0.3905620574951172,0.3864147663116455
1712257356711719400,3.816719482421875,-3.664644241333008,-0.42001914978027344,0.3275009095668793
1712257356721725400,3.826725341796875,-3.7252068519592285,-0.5081787109375,0.3344418704509735
1712257356731731700,3.836731689453125,-3.4939494132995605,-0.44948863983154297,0.11452578753232956
1712257356741737700,3.84673779296875,-3.3407952785491943,-0.5889201164245605,0.2433832287788391
1712257356751744000,3.856743896484375,-3.4451422691345215,-0.7825741767883301,0.4166192412376404
1712257356761750000,3.86675,-3.7887094020843506,-1.123539924621582,0.6184064745903015
1712257356771756300,3.87675634765625,-3.8660619258880615,-1.4225211143493652,0.5335901379585266
1712257356781762300,3.88676220703125,-3.4565072059631348,-1.6643610000610352,0.7604257464408875
1712257356791768600,3.8967685546875,-2.575174331665039,-1.7313785552978516,0.8116386532783508
1712257356801774600,3.906774658203125,-1.339010238647461,-1.4948906898498535,0.3522524833679199
1712257356811780900,3.91678076171875,-0.6530938148498535,-1.5152583122253418,0.641319990158081
1712257356821787000,3.926786865234375,-0.5989627838134766,-1.560560703277588,1.0156419277191162
1712257356831793200,3.936793212890625,-1.14947509765625,-1.6908326148986816,1.522762656211853
1712257356841799200,3.946799072265625,-2.283043384552002,-2.2324719429016113,2.0296506881713867
1712257356851805400,3.956805419921875,-3.5271949768066406,-2.698453664779663,1.5658169984817505
1712257356861811500,3.9668115234375,-4.137929916381836,-3.105869770050049,0.794553816318512
1712257356871817500,3.9768173828125,-3.93743896484375,-3.6410200595855713,0.25430741906166077
1712257356881823700,3.98682373046875,-3.118250846862793,-4.087514877319336,-0.37553125619888306
1712257356891829800,3.996829833984375,-2.0908446311950684,-4.319496154785156,-1.0340510606765747
1712257356901835800,4.006835693359375,-0.937169075012207,-4.265264511108398,-1.646046757698059
1712257356911842000,4.016842041015625,0.5938329696655273,-3.7842369079589844,-2.0574355125427246
1712257356921848000,4.02684814453125,2.3747482299804688,-3.0948638916015625,-1.967145323753357
1712257356931854000,4.03685400390625,4.438632965087891,-2.0445079803466797,-1.625532865524292
1712257356941860400,4.0468603515625,6.094717979431152,-1.0409533977508545,-0.8754546642303467
1712257356951866400,4.056866455078125,7.352287292480469,-0.11901021003723145,-0.17280235886573792
1712257356961872400,4.066872314453125,7.883310317993164,0.7167520523071289,0.10275071859359741
1712257356971878400,4.07687841796875,7.395589828491211,1.1154825687408447,0.4867311716079712
1712257356981884700,4.086884765625,6.337196350097656,1.3590002059936523,0.5198962092399597
1712257356991890700,4.096890625,5.146862983703613,1.3967101573944092,0.4135788083076477
1712257357001896700,4.106896728515625,4.011133193969727,1.132852554321289,0.5805755853652954
1712257357011903000,4.116903076171875,2.998093605041504,0.7579383850097656,0.4912155270576477
1712257357021909000,4.126908935546875,2.1481447219848633,0.38703155517578125,0.31105977296829224
1712257357031915000,4.1369150390625,1.3971891403198242,0.017950057983398438,0.21163415908813477
1712257357041921300,4.14692138671875,0.9307899475097656,-0.17687702178955078,-0.02694404125213623
1712257357051927300,4.15692724609375,0.7631864547729492,-0.19701731204986572,-0.17484688758850098
1712257357061933300,4.166933349609375,0.9047145843505859,-0.09337162971496582,-0.2721596956253052
1712257357071939600,4.176939697265625,1.1989364624023438,-0.004173398017883301,-0.5066843032836914
1712257357081945600,4.186945556640625,1.6137914657592773,0.05486750602722168,-0.685506284236908
1712257357091951600,4.19695166015625,2.083484649658203,0.053052544593811035,-0.6945106387138367
1712257357101957600,4.20695751953125,2.4990129470825195,0.02619946002960205,-0.610782265663147
1712257357111964000,4.2169638671875,2.7275571823120117,0.04423367977142334,-0.4430992603302002
1712257357121970000,4.226969970703125,2.4256248474121094,0.014294624328613281,-0.1256740689277649
1712257357131976000,4.236975830078125,1.6887845993041992,0.022936224937438965,0.0797843337059021
1712257357141982200,4.246982177734375,0.9655036926269531,0.14105284214019775,0.16115492582321167
1712257357151988200,4.25698828125,0.42133617401123047,0.1606367826461792,0.2626034617424011
1712257357161994200,4.266994140625,0.06400585174560547,0.14910519123077393,0.2326391339302063
1712257357172000500,4.27700048828125,-0.2752189636230469,0.08161020278930664,0.24312692880630493
1712257357182006500,4.287006591796875,-0.5542984008789062,0.052289485931396484,0.1823563575744629
1712257357192012800,4.2970126953125,-0.5680341720581055,0.0906364917755127,0.0007040500640869141
1712257357202018800,4.307018798828125,-0.3399629592895508,0.074249267578125,-0.1307336688041687
1712257357212025000,4.317025146484375,-0.045970916748046875,0.012534379959106445,-0.21859478950500488
1712257357222031000,4.327031005859375,0.25305652618408203,-0.02310967445373535,-0.33150869607925415
1712257357232037400,4.337037353515625,0.3906822204589844,0.02118515968322754,-0.3621446490287781
1712257357242043400,4.34704345703125,0.33393001556396484,-0.018232107162475586,-0.22754210233688354
1712257357252049700,4.357049560546875,0.21678829193115234,-0.001743912696838379,-0.04635494947433472
1712257357262055700,4.3670556640625,0.029503822326660156,0.02919471263885498,0.18215757608413696
1712257357272062000,4.37706201171875,-0.32393836975097656,0.025123000144958496,0.30625271797180176
1712257357282068000,4.38706787109375,-0.6002464294433594,0.08514010906219482,0.36011427640914917
1712257357292074200,4.39707421875,-0.7045879364013672,0.12563729286193848,0.42004770040512085
1712257357302080300,4.407080322265625,-0.6281013488769531,0.16623711585998535,0.3118335008621216
1712257357312086500,4.41708642578125,-0.4044828414916992,0.1244659423828125,0.18491101264953613
1712257357322092500,4.427092529296875,-0.2011566162109375,0.06563305854797363,0.05270940065383911
1712257357332098800,4.437098876953125,-0.10908317565917969,0.08483624458312988,-0.17468023300170898
1712257357342104800,4.447104736328125,-0.03729057312011719,0.04818224906921387,-0.3003202974796295
1712257357352111000,4.457111083984375,0.02426910400390625,0.007666826248168945,-0.31941068172454834
1712257357362117000,4.4671171875,0.057198524475097656,0.014052391052246094,-0.30398982763290405
1712257357372123400,4.477123291015625,0.009509086608886719,0.041845083236694336,-0.19025066494941711
1712257357382129400,4.48712939453125,-0.1664438247680664,0.08654928207397461,-0.016579270362854004
1712257357392135700,4.4971357421875,-0.34658241271972656,0.11669707298278809,0.15003475546836853
1712257357402141700,4.5071416015625,-0.42591285705566406,0.1521923542022705,0.35112422704696655
1712257357412148000,4.51714794921875,-0.509953498840332,0.1743450164794922,0.49749207496643066
1712257357422154000,4.527154052734375,-0.5654945373535156,0.19375371932983398,0.4510810673236847
1712257357432160300,4.53716015625,-0.5304098129272461,0.2056872844696045,0.32935863733291626
1712257357442166300,4.547166259765625,-0.4143686294555664,0.17148423194885254,0.14651945233345032
1712257357452172500,4.557172607421875,-0.19334983825683594,0.12799763679504395,-0.10739701986312866
1712257357462178600,4.567178466796875,0.051657676696777344,0.10130596160888672,-0.2965747117996216
1712257357472184800,4.577184814453125,0.10559368133544922,0.028594017028808594,-0.3786969780921936
1712257357482190800,4.58719091796875,0.03549480438232422,-0.01729726791381836,-0.4766421318054199
1712257357492197000,4.597197021484375,-0.07260417938232422,-0.04987215995788574,-0.38381192088127136
1712257357502203100,4.607203125,-0.1660003662109375,-0.06923723220825195,-0.17326384782791138
1712257357512209400,4.61720947265625,-0.33554649353027344,-0.0030634403228759766,0.0813596248626709
1712257357522215400,4.62721533203125,-0.5861787796020508,0.05465245246887207,0.23601678013801575
1712257357532221700,4.6372216796875,-0.7222833633422852,0.10171675682067871,0.23063912987709045
1712257357542227700,4.647227783203125,-0.6438207626342773,0.12909770011901855,0.3588699698448181
1712257357552234000,4.65723388671875,-0.5901880264282227,0.15536808967590332,0.49958065152168274
1712257357562240000,4.667239990234375,-0.46603870391845703,0.2431020736694336,0.43118777871131897
1712257357572246300,4.677246337890625,-0.18535327911376953,0.29110169410705566,0.2487289011478424
1712257357582252300,4.687252197265625,0.13739681243896484,0.2248833179473877,0.13114994764328003
1712257357592258600,4.697258544921875,0.41185951232910156,0.14729547500610352,-0.0926734209060669
1712257357602264600,4.7072646484375,0.5670404434204102,0.07031774520874023,-0.3272635340690613
1712257357612270800,4.717270751953125,0.5029973983764648,0.007651567459106445,-0.4707651138305664
1712257357622276900,4.72727685546875,0.37246227264404297,-0.06724143028259277,-0.5431564450263977
1712257357632283100,4.737283203125,0.27312278747558594,-0.10124921798706055,-0.4951881468296051
1712257357642289200,4.7472890625,0.21388530731201172,-0.10893535614013672,-0.39671438932418823
1712257357652295400,4.75729541015625,0.16124916076660156,-0.1148383617401123,-0.27251875400543213
1712257357662301400,4.767301513671875,0.01609516143798828,-0.12795352935791016,-0.14102710783481598
1712257357672307700,4.7773076171875,-0.3525352478027344,-0.07010197639465332,-0.08065527677536011
1712257357682313700,4.787313720703125,-0.5841054916381836,0.08044028282165527,-0.08680665493011475
1712257357692320000,4.797320068359375,-0.5589179992675781,0.08841586112976074,0.026304900646209717
1712257357702326000,4.807325927734375,-0.3611898422241211,0.11538052558898926,0.2068767249584198
1712257357712332300,4.817332275390625,-0.14873695373535156,0.15393471717834473,0.17315074801445007
1712257357722338300,4.82733837890625,0.0081939697265625,0.14488935470581055,0.021298646926879883
1712257357732344600,4.837344482421875,0.11579227447509766,0.12493658065795898,-0.1467650979757309
1712257357742350600,4.8473505859375,0.13759136199951172,0.07897329330444336,-0.28183165192604065
1712257357752356900,4.85735693359375,-0.04734325408935547,0.06818294525146484,-0.34103095531463623
1712257357762363000,4.86736279296875,-0.2146158218383789,0.027576208114624023,-0.21700701117515564
1712257357772369200,4.877369140625,-0.3460264205932617,-0.04978203773498535,-0.1133439838886261
1712257357782375200,4.887375244140625,-0.4140462875366211,-0.03576827049255371,-0.03811869025230408
1712257357792381400,4.89738134765625,-0.3443937301635742,-0.011851310729980469,0.04643583297729492
1712257357802387500,4.907387451171875,-0.27101707458496094,0.03478837013244629,0.13744378089904785
1712257357812393700,4.917393798828125,-0.26937198638916016,0.11784529685974121,0.1565486192703247
1712257357822400000,4.92739990234375,-0.29630184173583984,0.20534539222717285,0.08722037076950073
1712257357832406000,4.937406005859375,-0.2810688018798828,0.19467401504516602,-0.019486188888549805
1712257357842412300,4.947412353515625,-0.23388671875,0.12056899070739746,-0.08653604984283447
1712257357852418300,4.957418212890625,-0.13627910614013672,0.025715112686157227,-0.199452742934227
1712257357862424600,4.967424560546875,-0.10177040100097656,0.012920618057250977,-0.3021221458911896
1712257357872430600,4.9774306640625,-0.1526966094970703,-0.0511937141418457,-0.24176079034805298
1712257357882436900,4.987436767578125,-0.11322784423828125,-0.06713199615478516,-0.1606968194246292
1712257357892443000,4.99744287109375,-0.08334636688232422,-0.055969953536987305,-0.0705665647983551
1712257357902449200,5.00744921875,-0.06259727478027344,-0.009784936904907227,0.04593253135681152
1712257357912455200,5.017455078125,-0.11204910278320312,0.052388668060302734,0.13473421335220337
1712257357922461400,5.02746142578125,-0.13178730010986328,0.13104701042175293,0.36553317308425903
1712257357932467500,5.037467529296875,-0.1935863494873047,0.2513115406036377,0.6616266965866089
1712257357942473700,5.0474736328125,-0.2456798553466797,0.3720271587371826,0.6983495950698853
1712257357952479700,5.057479736328125,-0.20392513275146484,0.36284303665161133,0.6460210680961609
1712257357962486000,5.067486083984375,-0.12180519104003906,0.29215407371520996,0.5017772316932678
1712257357972492000,5.077491943359375,0.05204010009765625,0.18826508522033691,0.24318665266036987
1712257357982498300,5.087498291015625,0.34983253479003906,0.05858111381530762,-0.008755207061767578
1712257357992504300,5.09750439453125,0.5726919174194336,-0.024723052978515625,-0.2089187502861023
1712257358002510600,5.107510498046875,0.6848545074462891,-0.060065269470214844,-0.3320499658584595
1712257358012516600,5.1175166015625,0.6603202819824219,-0.0777132511138916,-0.32562321424484253
1712257358022523000,5.12752294921875,0.49187660217285156,-0.05408835411071777,-0.2201058268547058
1712257358032529000,5.13752880859375,0.2190103530883789,0.002743244171142578,-0.04772332310676575
1712257358042535200,5.14753515625,-0.10105323791503906,0.05329084396362305,0.11009186506271362
1712257358052541200,5.157541259765625,-0.3743553161621094,0.11525464057922363,0.21938297152519226
1712257358062547500,5.16754736328125,-0.5364980697631836,0.15344786643981934,0.28281331062316895
1712257358072553500,5.177553466796875,-0.5141458511352539,0.19741344451904297,0.25747594237327576
1712257358082559700,5.187559814453125,-0.3332786560058594,0.19356274604797363,0.14983341097831726
1712257358092565800,5.197565673828125,-0.11800098419189453,0.12540006637573242,0.01837983727455139
1712257358102572000,5.207572021484375,0.009503364562988281,0.042830467224121094,-0.10121917724609375
1712257358112578000,5.217578125,0.0369110107421875,-0.031711578369140625,-0.27111244201660156
1712257358122584300,5.227584228515625,0.03668022155761719,-0.08948564529418945,-0.3596886694431305
1712257358132590300,5.23759033203125,-0.03324127197265625,-0.1492908000946045,-0.36709046363830566
1712257358142596600,5.2475966796875,-0.16745853424072266,-0.14849209785461426,-0.3242867588996887
1712257358152602600,5.2576025390625,-0.2666587829589844,-0.0951223373413086,-0.21643367409706116
1712257358162609000,5.26760888671875,-0.30362987518310547,-0.04519915580749512,-0.03221535682678223
1712257358172615000,5.277614990234375,-0.28430747985839844,0.044248342514038086,0.10603883862495422
1712257358182621200,5.28762109375,-0.24734020233154297,0.10679078102111816,0.1709061563014984
1712257358192627200,5.297627197265625,-0.22127723693847656,0.12874436378479004,0.16864266991615295
1712257358202633500,5.307633544921875,-0.13985538482666016,0.09177947044372559,0.12122803926467896
1712257358212639500,5.317639404296875,-0.04121875762939453,0.06603193283081055,0.09335914254188538
1712257358222645800,5.327645751953125,0.03706836700439453,0.045221567153930664,0.054932862520217896
1712257358232651800,5.33765185546875,0.09094047546386719,0.02817702293395996,-0.00920182466506958
1712257358242658000,5.347657958984375,0.13976669311523438,0.033193111419677734,-0.042784541845321655
1712257358252664000,5.3576640625,0.19324970245361328,0.07331132888793945,-0.04736092686653137
1712257358262670300,5.36767041015625,0.2420024871826172,0.12398552894592285,-0.02843409776687622
1712257358272676400,5.37767626953125,0.2531614303588867,0.13302850723266602,0.03824445605278015
1712257358282682600,5.3876826171875,0.20354938507080078,0.1348714828491211,0.07882043719291687
1712257358292688600,5.397688720703125,0.10312366485595703,0.10267829895019531,0.19210317730903625
1712257358302695000,5.40769482421875,-0.0526123046875,0.06244158744812012,0.2728845477104187
1712257358312701000,5.417700927734375,-0.1784076690673828,0.04886579513549805,0.22824054956436157
1712257358322707000,5.42770703125,-0.24197673797607422,0.08146977424621582,0.08627480268478394
1712257358332713200,5.437713134765625,-0.19222164154052734,0.07858943939208984,-0.08372116088867188
1712257358342719200,5.44771923828125,-0.0727701187133789,0.029413223266601562,-0.1297881305217743
1712257358352725200,5.457725341796875,-0.006653785705566406,-0.010795354843139648,-0.14077940583229065
1712257358362731300,5.467731201171875,0.007235527038574219,-0.024251937866210938,-0.19787615537643433
1712257358372737500,5.477737548828125,-0.020765304565429688,-0.035024166107177734,-0.17896156013011932
1712257358382743600,5.48774365234375,-0.10895538330078125,-0.03316068649291992,-0.07070648670196533
1712257358392749600,5.49774951171875,-0.21899127960205078,-0.017709732055664062,0.05631789565086365
1712257358402755800,5.507755859375,-0.31804656982421875,0.03642153739929199,0.1615772545337677
1712257358412761900,5.517761962890625,-0.37870025634765625,0.06945371627807617,0.21648868918418884
1712257358422767900,5.527767822265625,-0.22282791137695312,0.11060404777526855,0.15624821186065674
1712257358432774100,5.537774169921875,0.000392913818359375,0.1250913143157959,0.1383107602596283
1712257358442780200,5.5477802734375,0.12085533142089844,0.09240579605102539,0.10997214913368225
1712257358452786200,5.5577861328125,0.18298053741455078,0.07819342613220215,-0.02473682165145874
1712257358462792400,5.56779248046875,0.20212554931640625,0.029594898223876953,-0.07781875133514404
1712257358472798500,5.577798583984375,0.19333267211914062,-0.02516961097717285,-0.10886986553668976
1712257358482804500,5.587804443359375,0.15244770050048828,-0.0014369487762451172,-0.17153339087963104
1712257358492810500,5.597810546875,0.11287117004394531,0.015133142471313477,-0.16652892529964447
1712257358502816800,5.607816650390625,0.050932884216308594,0.029653310775756836,-0.05619138479232788
1712257358512822800,5.61782275390625,-0.019220352172851562,0.03861069679260254,0.08002611994743347
1712257358522828800,5.627828857421875,-0.1262340545654297,0.0674138069152832,0.13647770881652832
1712257358532835000,5.6378349609375,-0.2370281219482422,0.07966279983520508,0.14100119471549988
1712257358542841000,5.647841064453125,-0.3615446090698242,0.10147333145141602,0.1755066215991974
1712257358552847000,5.65784716796875,-0.3348703384399414,0.0910184383392334,0.11130151152610779
1712257358562853400,5.667853271484375,-0.2061138153076172,0.07081890106201172,0.0414736270904541
1712257358572859400,5.677859375,0.038025856018066406,0.023827075958251953,-0.047106847167015076
1712257358582865400,5.687865478515625,0.25533294677734375,0.017431974411010742,-0.12909837067127228
1712257358592871400,5.697871337890625,0.3904142379760742,0.0010671615600585938,-0.16337859630584717
1712257358602877700,5.707877685546875,0.45906639099121094,-0.0027780532836914062,-0.14754801988601685
1712257358612883700,5.7178837890625,0.3823575973510742,-0.013372421264648438,-0.10456722974777222
1712257358622890000,5.727889892578125,0.18105125427246094,0.03240084648132324,-0.05527287721633911
1712257358632896000,5.73789599609375,-0.08244705200195312,0.05235552787780762,0.01696506142616272
1712257358642902300,5.74790234375,-0.32317352294921875,0.05954480171203613,0.12349233031272888
1712257358652908300,5.757908203125,-0.5046224594116211,0.07129931449890137,0.17610272765159607
1712257358662914600,5.76791455078125,-0.5717267990112305,0.07991147041320801,0.1712031066417694
1712257358672920600,5.777920654296875,-0.42740821838378906,0.06621384620666504,0.052722156047821045
1712257358682926800,5.7879267578125,-0.20632553100585938,0.013674497604370117,0.0006829500198364258
1712257358692932900,5.797932861328125,0.015727996826171875,-0.02835226058959961,-0.05922742187976837
1712257358702939100,5.807939208984375,0.14524555206298828,-0.04369950294494629,-0.09696820378303528
1712257358712945200,5.817945068359375,0.20764541625976562,-0.024590253829956055,-0.17654801905155182
1712257358722951400,5.827951416015625,0.21363067626953125,-0.005156517028808594,-0.14809828996658325
1712257358732957400,5.83795751953125,0.17343807220458984,0.0055539608001708984,-0.08283381164073944
1712257358742963700,5.847963623046875,0.07806968688964844,0.041930437088012695,-0.026332005858421326
1712257358752969700,5.8579697265625,-0.039173126220703125,0.05855298042297363,-0.008020967245101929
1712257358762976000,5.86797607421875,-0.10779571533203125,0.06687712669372559,0.008714795112609863
1712257358772982000,5.87798193359375,-0.14307403564453125,0.039887428283691406,0.0355774462223053
1712257358782988300,5.88798828125,-0.20218944549560547,0.00681757926940918,0.07785573601722717
1712257358792994300,5.897994384765625,-0.2566556930541992,0.03459358215332031,0.06786185503005981
1712257358803000600,5.90800048828125,-0.15090656280517578,0.08856868743896484,-0.010636866092681885
1712257358813006600,5.918006591796875,0.02363300323486328,0.062114715576171875,-0.01351378858089447
1712257358823012900,5.928012939453125,0.2053823471069336,0.019575119018554688,-0.020831719040870667
1712257358833019000,5.938018798828125,0.31005287170410156,-0.03637290000915527,-0.05828996002674103
1712257358843025200,5.948025146484375,0.3060789108276367,-0.06843400001525879,-0.08671262860298157
1712257358853031200,5.95803125,0.1855030059814453,-0.06148529052734375,-0.010781720280647278
1712257358863037400,5.968037353515625,0.07204055786132812,0.0004425048828125,0.02001848816871643
1712257358873043500,5.97804345703125,-0.006899833679199219,0.06715154647827148,0.006283670663833618
1712257358883049700,5.9880498046875,-0.019327163696289062,0.09269022941589355,-0.019947171211242676
1712257358893055700,5.9980556640625,0.014857292175292969,0.06342387199401855,0.00267145037651062
1712257358903062000,6.00806201171875,0.029242515563964844,0.04988431930541992,-0.003496617078781128
1712257358913068000,6.018068115234375,0.010341644287109375,0.04147696495056152,0.015689045190811157
1712257358923074300,6.02807421875,0.015414237976074219,0.07547593116760254,-0.05785301327705383
1712257358933080300,6.038080322265625,0.11034965515136719,0.11221623420715332,-0.13547146320343018
1712257358943086600,6.048086669921875,0.18106651306152344,0.07932281494140625,-0.09975938498973846
1712257358953092900,6.0580927734375,0.19037914276123047,0.043454885482788086,-0.03135254979133606
1712257358963099000,6.068098876953125,0.15806007385253906,0.04733753204345703,0.02347424626350403
1712257358973105200,6.078105224609375,0.013709068298339844,0.03999137878417969,0.11622902750968933
1712257358983111200,6.088111083984375,-0.21335792541503906,0.02441549301147461,0.0661933422088623
1712257358993117400,6.098117431640625,-0.3435554504394531,-0.005820512771606445,-0.002229750156402588
1712257359003123500,6.10812353515625,-0.35514163970947266,-0.059168100357055664,-0.013804435729980469
1712257359013129700,6.118129638671875,-0.27341651916503906,-0.051199913024902344,-0.01814928650856018
1712257359023135700,6.1281357421875,-0.09476757049560547,-0.01278066635131836,-0.05981948971748352
1712257359033142000,6.13814208984375,0.109283447265625,-0.003631591796875,-0.031170740723609924
1712257359043148000,6.14814794921875,0.1834278106689453,0.007782697677612305,-0.04700577259063721
1712257359053154300,6.158154296875,0.12514114379882812,0.00728917121887207,-0.031772300601005554
1712257359063160300,6.168160400390625,0.054160118103027344,-0.03246903419494629,-0.009181231260299683
1712257359073166600,6.17816650390625,-0.0484161376953125,-0.02497553825378418,-0.012240618467330933
1712257359083172600,6.188172607421875,-0.1305246353149414,-0.026605844497680664,-0.00195351243019104
1712257359093179000,6.198178955078125,-0.18328380584716797,-0.008262872695922852,0.054995954036712646
1712257359103185000,6.208184814453125,-0.25452613830566406,0.01646566390991211,0.13544505834579468
1712257359113191200,6.218191162109375,-0.29711341857910156,0.06719279289245605,0.09373921155929565
1712257359123197200,6.228197265625,-0.2502613067626953,0.09622001647949219,0.02598017454147339
1712257359133203500,6.238203369140625,-0.09630298614501953,0.07927608489990234,-0.007689237594604492
1712257359143209500,6.24820947265625,0.06940937042236328,0.0667264461517334,-0.032705068588256836
1712257359153215700,6.2582158203125,0.12000083923339844,0.023751497268676758,-0.03488895297050476
1712257359163221800,6.2682216796875,0.06691360473632812,-0.0071675777435302734,-0.028822362422943115
1712257359173228000,6.27822802734375,0.043480873107910156,-0.011102914810180664,-0.03410297632217407
1712257359183234000,6.288234130859375,0.006718635559082031,0.002476930618286133,-0.035890549421310425
1712257359193240300,6.298240234375,-0.04341316223144531,0.005923271179199219,-0.028483420610427856
1712257359203246300,6.308246337890625,-0.07393264770507812,0.03306221961975098,-0.02082619071006775
1712257359213252600,6.318252685546875,-0.1655435562133789,0.037294626235961914,0.05592420697212219
1712257359223258600,6.328258544921875,-0.25645923614501953,0.0299985408782959,0.04596054553985596
1712257359233265000,6.338264892578125,-0.2667856216430664,0.031020164489746094,0.00034233927726745605
1712257359243271000,6.34827099609375,-0.18819332122802734,0.01598334312438965,0.030621886253356934
1712257359253277200,6.358277099609375,-0.0641927719116211,0.016911029815673828,0.0732778012752533
1712257359263283200,6.368283203125,0.10497665405273438,0.05517935752868652,0.05682867765426636
1712257359273289500,6.37828955078125,0.24830055236816406,0.07707905769348145,0.05667155981063843
1712257359283295500,6.38829541015625,0.3900470733642578,0.09100484848022461,0.07841253280639648
1712257359293301800,6.3983017578125,0.4455575942993164,0.11532187461853027,0.0675782561302185
1712257359303307800,6.408307861328125,0.36435508728027344,0.12189912796020508,0.05416387319564819
1712257359313314000,6.41831396484375,0.22370052337646484,0.10771822929382324,0.024015486240386963
1712257359323320000,6.428320068359375,0.11377334594726562,0.07903552055358887,-0.014069169759750366
1712257359333326300,6.438326416015625,0.06223011016845703,0.05073094367980957,-0.028375893831253052
1712257359343332400,6.448332275390625,0.09640979766845703,0.032219886779785156,-0.06801357865333557
1712257359353338600,6.458338623046875,0.2623777389526367,0.05030202865600586,-0.10608777403831482
1712257359363344600,6.4683447265625,0.3982400894165039,0.09834814071655273,-0.11532258987426758
1712257359373351000,6.478350830078125,0.4670524597167969,0.08055734634399414,-0.08890607953071594
1712257359383357000,6.48835693359375,0.44625377655029297,0.06895685195922852,-0.05360877513885498
1712257359393363200,6.49836328125,0.41250038146972656,0.0687398910522461,-0.05107003450393677
1712257359403369200,6.508369140625,0.3094329833984375,0.004685640335083008,-0.08527404069900513
1712257359413375500,6.51837548828125,0.123748779296875,-0.045462608337402344,-0.13728922605514526
1712257359423381500,6.528381591796875,0.030793190002441406,-0.09472870826721191,-0.20464715361595154
1712257359433387800,6.5383876953125,0.057242393493652344,-0.13338565826416016,-0.2553425431251526
1712257359443393800,6.548393798828125,0.16838645935058594,-0.13423585891723633,-0.2939777374267578
1712257359453400000,6.558400146484375,0.4151487350463867,-0.11392378807067871,-0.3202904462814331
1712257359463406000,6.568406005859375,0.6360492706298828,-0.11327838897705078,-0.33010417222976685
1712257359473412400,6.578412353515625,0.6719150543212891,-0.15720748901367188,-0.3409477472305298
1712257359483418400,6.58841845703125,0.7613973617553711,-0.24027538299560547,-0.362848699092865
1712257359493424600,6.598424560546875,-0.22724437713623047,0.6507058143615723,-0.9465605020523071
1712257359503430700,6.6084306640625,-0.7963590621948242,0.4724090099334717,-0.2711571455001831
1712257359513437000,6.61843701171875,-0.49208641052246094,-0.21252727508544922,0.5484583377838135
1712257359523443000,6.62844287109375,-0.1003732681274414,-0.11269187927246094,0.24813121557235718
1712257359533449200,6.63844921875,0.2283172607421875,0.06133389472961426,-0.06558412313461304
1712257359543455200,6.648455322265625,0.32590293884277344,-0.2227945327758789,0.29422062635421753
1712257359553461500,6.65846142578125,0.14380550384521484,-0.4282722473144531,0.4544118642807007
1712257359563467500,6.668467529296875,0.06276607513427734,-0.23372578620910645,0.11764216423034668
1712257359573473800,6.678473876953125,0.1427154541015625,-0.01729416847229004,-0.06217926740646362
1712257359583479800,6.688479736328125,0.18401241302490234,0.044513702392578125,-0.005157649517059326
1712257359593486000,6.698486083984375,0.07513999938964844,0.031764984130859375,0.25271743535995483
1712257359603492000,6.7084921875,-0.15312767028808594,0.030599117279052734,0.3872893452644348
1712257359613498400,6.718498291015625,-0.5513477325439453,0.03338456153869629,0.4066988229751587
1712257359623504400,6.72850439453125,-0.9441118240356445,-0.03119802474975586,0.37214887142181396
1712257359633510700,6.7385107421875,-1.0265226364135742,-0.012742280960083008,0.2954369783401489
1712257359643517000,6.748516845703125,-0.968841552734375,0.0032439231872558594,0.1298486590385437
1712257359653523000,6.75852294921875,-0.8202180862426758,-0.03160548210144043,-0.0451970100402832
1712257359663529200,6.768529296875,-0.6094274520874023,-0.09071993827819824,-0.1695495843887329
1712257359673535200,6.77853515625,-0.5185308456420898,-0.1250135898590088,-0.08633244037628174
1712257359683541200,6.788541259765625,-0.6296958923339844,-0.1464993953704834,0.045272767543792725
1712257359693547300,6.79854736328125,-0.6757907867431641,-0.09156036376953125,0.06274628639221191
1712257359703553500,6.808553466796875,-0.6860342025756836,-0.01220393180847168,0.07920321822166443
1712257359713559600,6.8185595703125,-0.6174392700195312,0.02473926544189453,0.19869425892829895
1712257359723565600,6.828565673828125,-0.3451566696166992,0.07549452781677246,0.33252644538879395
1712257359733571800,6.83857177734375,-0.09736442565917969,0.1364285945892334,0.30779141187667847
1712257359743577900,6.848577880859375,0.04620933532714844,0.20842385292053223,0.17733034491539001
1712257359753583900,6.858583984375,0.11534500122070312,0.21276235580444336,0.20217937231063843
1712257359763590100,6.868590087890625,-0.03822040557861328,0.11233925819396973,0.219031423330307
1712257359773596200,6.87859619140625,-0.16628646850585938,0.04274320602416992,0.03548264503479004
1712257359783602200,6.888602294921875,-0.22190189361572266,0.020247697830200195,-0.08562751114368439
1712257359793608200,6.898608154296875,-0.35428714752197266,-0.10086655616760254,-0.07142278552055359
1712257359803614500,6.908614501953125,-0.3011207580566406,-0.11367130279541016,-0.12510408461093903
1712257359813620500,6.918620361328125,-0.03378582000732422,-0.01492929458618164,-0.058689117431640625
1712257359823626500,6.92862646484375,0.23327064514160156,0.08221840858459473,0.00605657696723938
1712257359833632800,6.9386328125,0.41023731231689453,0.11806154251098633,0.06781300902366638
1712257359843638800,6.948638671875,0.5501623153686523,0.13045215606689453,0.08127063512802124
1712257359853644800,6.958644775390625,0.5864238739013672,0.09041142463684082,0.12296238541603088
1712257359863651000,6.968651123046875,0.5286321640014648,0.04615139961242676,0.11427855491638184
1712257359873657000,6.978656982421875,0.39582252502441406,0.008131742477416992,0.06940343976020813
1712257359883663000,6.9886630859375,0.12550067901611328,-0.04099297523498535,0.03903156518936157
1712257359893669400,6.99866943359375,-0.17290782928466797,-0.06550216674804688,0.011285573244094849
1712257359903675400,7.00867529296875,-0.3569822311401367,-0.03903532028198242,-0.0485442578792572
1712257359913681400,7.018681396484375,-0.37981128692626953,0.03976798057556152,-0.10773129761219025
1712257359923687400,7.0286875,-0.31818389892578125,0.05096101760864258,-0.15869009494781494
1712257359933693700,7.038693603515625,-0.10368633270263672,0.04098248481750488,-0.12109445035457611
1712257359943699700,7.04869970703125,0.040435791015625,-0.009300947189331055,-0.05231809616088867
1712257359953705700,7.058705810546875,0.0779581069946289,-0.03435325622558594,-0.015283316373825073
1712257359963712000,7.0687119140625,0.057865142822265625,-0.002007722854614258,-0.027445703744888306
1712257359973718000,7.078718017578125,0.0001773834228515625,0.015964508056640625,-0.025504469871520996
1712257359983724000,7.08872412109375,-0.10849285125732422,0.0057833194732666016,-0.06535400450229645
1712257359993730300,7.098730224609375,-0.18690013885498047,-0.0185091495513916,-0.0937538743019104
1712257360003736300,7.108736328125,-0.2588949203491211,-0.019305706024169922,-0.04336373507976532
1712257360013742600,7.11874267578125,-0.18314743041992188,0.007418155670166016,0.00203821063041687
1712257360023748600,7.12874853515625,-0.10775947570800781,0.06023240089416504,0.04907268285751343
1712257360033755000,7.1387548828125,-0.018362045288085938,0.15183663368225098,0.11715441942214966
1712257360043761000,7.148760986328125,-0.019186019897460938,0.19293832778930664,0.13813892006874084
1712257360053767200,7.15876708984375,-0.1852121353149414,0.09287071228027344,0.13414239883422852
1712257360063773200,7.168773193359375,-0.4115314483642578,-0.006253480911254883,0.03412175178527832
1712257360073779500,7.178779541015625,-0.5284576416015625,-0.04124951362609863,-0.07008075714111328
1712257360083785500,7.188785400390625,-0.5048913955688477,-0.05987358093261719,-0.03980949521064758
1712257360093791700,7.198791748046875,-0.40369415283203125,-0.04955339431762695,-0.02290976047515869
1712257360103797800,7.2087978515625,-0.16864776611328125,0.0295107364654541,-0.0900643914937973
1712257360113804000,7.218803955078125,0.185516357421875,0.05463910102844238,-0.00868380069732666
1712257360123810000,7.22881005859375,0.4464836120605469,0.060346364974975586,0.07298412919044495
1712257360133816300,7.23881640625,0.6118841171264648,0.12488794326782227,0.00035828351974487305
1712257360143822300,7.248822265625,0.6552181243896484,0.13849663734436035,0.01740097999572754
1712257360153828600,7.25882861328125,0.49289989471435547,0.08035516738891602,0.11327838897705078
1712257360163834600,7.268834716796875,0.25418949127197266,0.06752991676330566,0.10848796367645264
1712257360173841000,7.2788408203125,0.01904582977294922,0.03653669357299805,0.08265510201454163
1712257360183847000,7.288846923828125,-0.2043132781982422,-0.014243602752685547,0.12630513310432434
1712257360193853200,7.298853271484375,-0.37448978424072266,-0.02596116065979004,0.04935261607170105
1712257360203859200,7.308859130859375,-0.3651876449584961,0.029198169708251953,-0.05075523257255554
1712257360213865500,7.318865478515625,-0.2400226593017578,0.03136849403381348,-0.07001592218875885
1712257360223871500,7.32887158203125,-0.009248733520507812,0.0353541374206543,-0.13912881910800934
1712257360233877800,7.338877685546875,0.30341434478759766,0.02318549156188965,-0.17539720237255096
1712257360243883800,7.3488837890625,0.45323753356933594,-0.01804494857788086,-0.14260847866535187
1712257360253890000,7.35889013671875,0.43386173248291016,-0.008803606033325195,-0.1064475029706955
1712257360263896000,7.36889599609375,0.3085670471191406,0.0189208984375,-0.09809131920337677
1712257360273902300,7.37890234375,0.10140132904052734,0.006512165069580078,-0.046919167041778564
1712257360283908400,7.388908447265625,-0.11705970764160156,-0.028079748153686523,0.07016938924789429
1712257360293914600,7.39891455078125,-0.27695178985595703,-0.016364336013793945,0.10804617404937744
1712257360303920600,7.408920654296875,-0.3702688217163086,0.018491268157958984,0.10482725501060486
1712257360313927000,7.418927001953125,-0.41210365295410156,0.04774761199951172,0.07243672013282776
1712257360323933000,7.428932861328125,-0.3322277069091797,0.05660390853881836,-0.002412766218185425
1712257360333939200,7.438939208984375,-0.1221933364868164,0.10433053970336914,-0.06257060170173645
1712257360343945200,7.4489453125,0.08983230590820312,0.0697929859161377,-0.08144406974315643
1712257360353951500,7.458951416015625,0.1917705535888672,0.013085365295410156,-0.06360700726509094
1712257360363957500,7.46895751953125,0.18563556671142578,-0.014211177825927734,-0.026706606149673462
1712257360373963800,7.4789638671875,0.1009206771850586,0.0027670860290527344,0.00802275538444519
1712257360383969800,7.4889697265625,-0.005446434020996094,0.00877070426940918,0.04837730526924133
1712257360393976000,7.49897607421875,-0.17658615112304688,0.015878915786743164,0.07375216484069824
1712257360403982000,7.508982177734375,-0.30424976348876953,0.012543201446533203,0.03939884901046753
1712257360413988400,7.51898828125,-0.21999454498291016,0.03289461135864258,-0.022534459829330444
1712257360423994400,7.528994384765625,-0.06798267364501953,0.05638837814331055,-0.095360666513443
1712257360434000600,7.539000732421875,0.12828540802001953,0.05205059051513672,-0.13921765983104706
1712257360444006700,7.549006591796875,0.24186134338378906,0.04647946357727051,-0.0909447968006134
1712257360454013000,7.559012939453125,0.25577449798583984,-0.003946065902709961,0.005829960107803345
1712257360464019000,7.56901904296875,0.18583965301513672,-0.03276848793029785,0.08119958639144897
1712257360474025200,7.579025146484375,0.028293609619140625,-0.0063533782958984375,0.12729033827781677
1712257360484031200,7.58903125,-0.1691131591796875,0.03400254249572754,0.13052082061767578
1712257360494037500,7.59903759765625,-0.2840461730957031,0.08057403564453125,0.04405975341796875
1712257360504043500,7.60904345703125,-0.23818206787109375,0.0871584415435791,-0.023601949214935303
1712257360514049800,7.6190498046875,-0.0383758544921875,0.06722116470336914,-0.025785773992538452
1712257360524055800,7.629055908203125,0.20557689666748047,0.05608248710632324,-0.02820122241973877
1712257360534062000,7.63906201171875,0.3903055191040039,0.022838592529296875,-0.020317137241363525
1712257360544068000,7.649068115234375,0.3662271499633789,-0.013602495193481445,-0.011396050453186035
1712257360554074400,7.659074462890625,0.20231246948242188,-0.009830474853515625,-0.06149280071258545
1712257360564080400,7.669080322265625,-0.019664764404296875,0.03032851219177246,-0.052195847034454346
1712257360574086700,7.679086669921875,-0.19106101989746094,0.028021812438964844,0.022345930337905884
1712257360584092700,7.6890927734375,-0.2661247253417969,0.056006431579589844,0.059804826974868774
1712257360594099000,7.699098876953125,-0.2887907028198242,0.07589864730834961,0.10413959622383118
1712257360604105000,7.70910498046875,-0.2881965637207031,0.05948305130004883,0.10959017276763916
1712257360614111200,7.719111328125,-0.25539684295654297,0.031106233596801758,0.06275597214698792
1712257360624117200,7.7291171875,-0.19542884826660156,-0.00959467887878418,0.007401704788208008
1712257360634123500,7.73912353515625,-0.12263679504394531,-0.030022382736206055,-0.07533857226371765
1712257360644129800,7.7491298828125,-0.018190383911132812,-0.02155447006225586,-0.162174791097641
1712257360654135800,7.7591357421875,0.06585407257080078,-0.051223039627075195,-0.2062792181968689
1712257360664142000,7.76914208984375,0.11130332946777344,-0.07215642929077148,-0.14611853659152985
1712257360674148000,7.779148193359375,0.0860605239868164,-0.06147480010986328,-0.04027703404426575
1712257360684154400,7.789154296875,-0.004200935363769531,-0.014361143112182617,0.005842059850692749
1712257360694160400,7.799160400390625,-0.09298133850097656,0.02754068374633789,0.03955495357513428
1712257360704166700,7.809166748046875,-0.10077953338623047,0.07958030700683594,0.06761619448661804
1712257360714172700,7.819172607421875,-0.043182373046875,0.07104301452636719,0.06850972771644592
1712257360724179000,7.829178955078125,0.1590127944946289,0.0728914737701416,0.043203651905059814
1712257360734185000,7.83918505859375,0.32981395721435547,0.0738370418548584,0.002469301223754883
1712257360744191200,7.849191162109375,0.4184741973876953,0.05834007263183594,-0.01940089464187622
1712257360754197200,7.859197265625,0.4407205581665039,0.059163808822631836,-0.056749165058135986
1712257360764203500,7.86920361328125,0.32227039337158203,0.04338335990905762,-0.0355491042137146
1712257360774209500,7.87920947265625,0.13573741912841797,0.007609128952026367,0.060828596353530884
1712257360784215800,7.8892158203125,-0.052196502685546875,0.00038313865661621094,0.1208353042602539
1712257360794221800,7.899221923828125,-0.19945144653320312,0.03160524368286133,0.08688580989837646
1712257360804228000,7.90922802734375,-0.30219173431396484,0.07296299934387207,0.053724974393844604
1712257360814234000,7.919234130859375,-0.32856273651123047,0.10158634185791016,0.036145031452178955
1712257360824240400,7.929240478515625,-0.2659940719604492,0.08990907669067383,-0.034439295530319214
1712257360834246400,7.939246337890625,-0.11594772338867188,0.047681570053100586,-0.06489378213882446
1712257360844252700,7.949252685546875,0.04977989196777344,-0.025630474090576172,-0.024656742811203003
1712257360854258700,7.9592587890625,0.25507354736328125,-0.036875009536743164,-0.0933736264705658
1712257360864265000,7.969264892578125,0.3918132781982422,-0.012414932250976562,-0.1543070673942566
1712257360874271000,7.97927099609375,0.3581666946411133,-0.029631853103637695,-0.03866729140281677
1712257360884277000,7.989277099609375,0.18505573272705078,-0.030896425247192383,0.06220540404319763
1712257360894283300,7.999283203125,-0.055329322814941406,0.018556833267211914,0.10445699095726013
