time,seconds_elapsed,z,y,x
1712257450960567800,0.07456787109375,0.020063400268554688,0.24930143356323242,-0.2107880711555481
1712257450970567000,0.08456689453125,0.021368026733398438,0.2424333095550537,-0.20415258407592773
1712257450980566300,0.094566162109375,0.04460906982421875,0.17859649658203125,-0.20548397302627563
1712257450990566000,0.10456591796875,0.05113983154296875,0.13589978218078613,-0.1959906816482544
1712257451000565200,0.114565185546875,0.047443389892578125,0.13127374649047852,-0.18311142921447754
1712257451010564600,0.124564697265625,0.058281898498535156,0.19350647926330566,-0.16132628917694092
1712257451020563700,0.134563720703125,0.06464004516601562,0.18264555931091309,-0.20618417859077454
1712257451030562800,0.144562744140625,0.020891189575195312,0.1541433334350586,-0.17311039566993713
1712257451040562200,0.154562255859375,0.005959510803222656,0.14211201667785645,-0.12067273259162903
1712257451050561500,0.1645615234375,0.022212982177734375,0.09416747093200684,-0.10966670513153076
1712257451060561000,0.174560791015625,0.038288116455078125,0.0854501724243164,-0.09932446479797363
1712257451070560300,0.184560302734375,0.013522148132324219,0.060729026794433594,-0.10411116480827332
1712257451080559600,0.1945595703125,-0.0903635025024414,0.060605525970458984,-0.11218711733818054
1712257451090559000,0.20455908203125,-0.08898448944091797,0.08001852035522461,-0.09154066443443298
1712257451100558300,0.214558349609375,-0.09013938903808594,0.06900596618652344,-0.10505619645118713
1712257451110557400,0.224557373046875,-0.03648853302001953,0.061490535736083984,-0.13791817426681519
1712257451120556800,0.234556884765625,-0.049981117248535156,0.030385494232177734,-0.1223495602607727
1712257451130556000,0.244555908203125,-0.02527141571044922,0.03805971145629883,-0.06380757689476013
1712257451140555000,0.254554931640625,-0.015002250671386719,0.007886648178100586,-0.022934943437576294
1712257451150554400,0.264554443359375,0.021511077880859375,0.033392906188964844,-0.021821707487106323
1712257451160553500,0.274553466796875,0.012591361999511719,0.07565522193908691,-0.012460082769393921
1712257451170552600,0.284552490234375,-0.04873085021972656,0.035634517669677734,-0.04732587933540344
1712257451180551700,0.2945517578125,-0.08124542236328125,-0.0021893978118896484,-0.06836223602294922
1712257451190550800,0.30455078125,-0.08530521392822266,-0.04366874694824219,-0.0012098848819732666
1712257451200550000,0.3145498046875,-0.008439064025878906,-0.028102397918701172,0.002790391445159912
1712257451210549000,0.324549072265625,0.05597400665283203,-0.024982690811157227,-0.04630228877067566
1712257451220547800,0.3345478515625,0.11290359497070312,0.0007143020629882812,-0.020284444093704224
1712257451230547000,0.344546875,0.131591796875,0.021342992782592773,0.00825953483581543
1712257451240546000,0.354546142578125,0.08832263946533203,0.043326616287231445,0.03142455220222473
1712257451250545000,0.364544921875,0.04076671600341797,0.0466771125793457,0.03020012378692627
1712257451260544000,0.3745439453125,-0.044826507568359375,0.06807708740234375,0.0007069706916809082
1712257451270543000,0.384543212890625,-0.11806678771972656,0.07596826553344727,-0.016256272792816162
1712257451280542000,0.3945419921875,-0.11937808990478516,0.0666663646697998,0.010251283645629883
1712257451290540800,0.404540771484375,-0.053673744201660156,0.08873414993286133,0.0381641685962677
1712257451300540000,0.414539794921875,-0.05502033233642578,0.043910980224609375,0.022230327129364014
1712257451310538800,0.424538818359375,-0.020552635192871094,0.00668644905090332,0.030037999153137207
1712257451320537600,0.43453759765625,0.009002685546875,0.00829315185546875,0.018385201692581177
1712257451330536400,0.444536376953125,0.06241416931152344,-0.020867347717285156,-0.007835149765014648
1712257451340535300,0.454535400390625,0.03640556335449219,-0.03663015365600586,-0.01632794737815857
1712257451350534100,0.4645341796875,-0.08797359466552734,0.010513782501220703,-0.10528290271759033
1712257451360533000,0.474532958984375,-0.09712696075439453,0.044413089752197266,-0.05436936020851135
1712257451370531600,0.484531494140625,0.01834583282470703,0.0662848949432373,-0.01608756184577942
1712257451380530400,0.494530517578125,0.09064388275146484,0.0837407112121582,-0.000012636184692382812
1712257451390529300,0.504529296875,0.05525016784667969,0.057839393615722656,-0.016846805810928345
1712257451400528000,0.51452783203125,-0.011160850524902344,0.024281024932861328,-0.04520136117935181
1712257451410526700,0.524526611328125,-0.10149192810058594,0.026490211486816406,0.00834566354751587
1712257451420525300,0.534525390625,-0.09843158721923828,-0.004822969436645508,0.016045719385147095
1712257451430524200,0.544524169921875,-0.05737018585205078,-0.05890393257141113,-0.0266420841217041
1712257451440522800,0.554522705078125,0.011942863464355469,-0.08976912498474121,-0.06109684705734253
1712257451450521600,0.564521484375,0.030527114868164062,-0.07120108604431152,-0.079984650015831
1712257451460520400,0.5745205078125,-0.020488739013671875,0.022025346755981445,-0.06145137548446655
1712257451470519000,0.58451904296875,0.0031099319458007812,0.0490725040435791,-0.08559148013591766
1712257451480518000,0.594517822265625,-0.0062847137451171875,0.014294624328613281,-0.09064136445522308
1712257451490516500,0.6045166015625,-0.0704813003540039,-0.021513938903808594,-0.0667053610086441
1712257451500515300,0.614515380859375,-0.01742076873779297,0.021975040435791016,-0.07665114104747772
1712257451510514200,0.62451416015625,0.004420280456542969,0.04437971115112305,-0.02032354474067688
1712257451520512800,0.6345126953125,-0.0024499893188476562,0.07169556617736816,0.05110222101211548
1712257451530511600,0.64451171875,0.05305767059326172,0.05329728126525879,0.060536324977874756
1712257451540510500,0.654510498046875,0.046257972717285156,-0.007804155349731445,0.03734979033470154
1712257451550509300,0.66450927734375,0.05589866638183594,-0.043813228607177734,-0.0021830499172210693
1712257451560508000,0.6745078125,0.12022590637207031,-0.009022235870361328,-0.010000795125961304
1712257451570506800,0.6845068359375,0.14849472045898438,0.02397441864013672,0.015274077653884888
1712257451580505300,0.69450537109375,0.11943721771240234,0.018176794052124023,0.018772661685943604
1712257451590504200,0.704504150390625,0.12174701690673828,-0.024463415145874023,0.003246814012527466
1712257451600503000,0.7145029296875,0.057117462158203125,-0.06025266647338867,0.02808859944343567
1712257451610501600,0.724501708984375,0.011684417724609375,-0.017081022262573242,0.08795738220214844
1712257451620500500,0.73450048828125,-0.05045509338378906,-0.021842479705810547,0.09630891680717468
1712257451630499000,0.7444990234375,-0.11492061614990234,-0.014797449111938477,0.06564423441886902
1712257451640498000,0.754497802734375,-0.1891307830810547,-0.0071032047271728516,0.1115589439868927
1712257451650496800,0.764496826171875,-0.17963409423828125,-0.01797962188720703,0.15091127157211304
1712257451660495400,0.774495361328125,-0.108062744140625,-0.0422360897064209,0.14971470832824707
1712257451670494200,0.784494140625,-0.0032405853271484375,-0.04629826545715332,0.10787484049797058
1712257451680493000,0.7944931640625,0.0631256103515625,-0.061910152435302734,-0.0070116519927978516
1712257451690492000,0.804491943359375,0.0457305908203125,-0.011032819747924805,-0.042268067598342896
1712257451700490500,0.814490478515625,0.01912975311279297,0.03095722198486328,0.00841587781906128
1712257451710489300,0.8244892578125,-0.033272743225097656,0.037322044372558594,-0.019411474466323853
1712257451720488000,0.834488037109375,-0.10208320617675781,0.006370067596435547,-0.008450955152511597
1712257451730486800,0.84448681640625,-0.09914779663085938,0.013988494873046875,-0.01863834261894226
1712257451740485400,0.8544853515625,-0.03180122375488281,-0.025430679321289062,0.007331967353820801
1712257451750484200,0.864484130859375,0.006438255310058594,-0.003482341766357422,0.015927433967590332
1712257451760482800,0.87448291015625,0.011051177978515625,-0.009884834289550781,-0.011215448379516602
1712257451770481700,0.884481689453125,-0.044193267822265625,-0.002026796340942383,0.0007438957691192627
1712257451780480300,0.894480224609375,-0.08724212646484375,0.016965627670288086,0.00297391414642334
1712257451790479000,0.90447900390625,-0.08951473236083984,0.03807330131530762,0.01960495114326477
1712257451800477700,0.914477783203125,-0.06536865234375,0.03498077392578125,-0.012023836374282837
1712257451810476500,0.9244765625,-0.02684497833251953,-0.0064733028411865234,-0.055570632219314575
1712257451820475100,0.93447509765625,0.03538227081298828,-0.0041010379791259766,-0.04762575030326843
1712257451830474000,0.944473876953125,0.04960155487060547,-0.008447647094726562,-0.03963479399681091
1712257451840472600,0.95447265625,0.042283058166503906,0.02302694320678711,-0.012167394161224365
1712257451850471400,0.964471435546875,0.04940223693847656,0.023027658462524414,-0.05118444561958313
1712257451860470300,0.97447021484375,0.061321258544921875,0.006194353103637695,-0.08284062147140503
1712257451870468900,0.98446875,0.046840667724609375,-0.03918933868408203,-0.05896216630935669
1712257451880467700,0.9944677734375,0.017828941345214844,-0.04806351661682129,-0.02772831916809082
1712257451890466300,1.00446630859375,-0.013714790344238281,-0.04204678535461426,-0.0156136155128479
1712257451900465200,1.014465087890625,-0.030983924865722656,-0.052423715591430664,-0.025188714265823364
1712257451910464000,1.024464111328125,-0.05554962158203125,-0.021635055541992188,-0.020597010850906372
1712257451920462600,1.034462646484375,-0.07770442962646484,-0.021986722946166992,-0.013912051916122437
1712257451930461400,1.04446142578125,-0.08301639556884766,-0.034560203552246094,-0.017315953969955444
1712257451940460300,1.054460205078125,-0.047565460205078125,0.005350351333618164,-0.02809998393058777
1712257451950459000,1.064458984375,-0.040709495544433594,0.004015922546386719,-0.026762545108795166
1712257451960457700,1.074457763671875,-0.06724071502685547,-0.012204408645629883,-0.0013683438301086426
1712257451970456300,1.084456298828125,-0.08657646179199219,0.02188873291015625,0.0426182746887207
1712257451980455200,1.094455078125,-0.033969879150390625,0.015006065368652344,0.07580190896987915
1712257451990453800,1.104453857421875,-0.014924049377441406,0.039577484130859375,0.0837954580783844
1712257452000452600,1.11445263671875,0.035317420959472656,0.05196094512939453,0.06508374214172363
1712257452010451500,1.124451416015625,0.025704383850097656,0.04031729698181152,0.0254022479057312
1712257452020450000,1.134449951171875,0.09043598175048828,0.016126394271850586,0.03680118918418884
1712257452030449000,1.144448974609375,0.054640769958496094,0.013395071029663086,0.01919001340866089
1712257452040447700,1.15444775390625,0.004603385925292969,0.010155677795410156,-0.01728034019470215
1712257452050446600,1.164446533203125,-0.05023002624511719,-0.0003104209899902344,-0.05083164572715759
1712257452060445200,1.174445068359375,-0.009407997131347656,-0.0008473396301269531,-0.04068449139595032
1712257452070444000,1.184444091796875,0.024000167846679688,0.028209447860717773,-0.01842266321182251
1712257452080442600,1.194442626953125,0.03813743591308594,0.002615690231323242,0.030418753623962402
1712257452090441500,1.20444140625,0.0282440185546875,-0.010591983795166016,0.04751017689704895
1712257452100440300,1.2144404296875,0.0014619827270507812,-0.02809429168701172,0.03105902671813965
1712257452110439200,1.224439208984375,0.015279769897460938,-0.030848979949951172,0.03865668177604675
1712257452120438000,1.23443798828125,-0.0044269561767578125,-0.02638864517211914,0.029371052980422974
1712257452130437000,1.24443701171875,-0.02654743194580078,-0.03383207321166992,0.022560864686965942
1712257452140436000,1.25443603515625,-0.031746864318847656,-0.04902219772338867,-0.020536303520202637
1712257452150434800,1.264434814453125,-0.05603504180908203,-0.021467924118041992,-0.04129573702812195
1712257452160434000,1.274433837890625,-0.06814956665039062,-0.004388093948364258,-0.013307660818099976
1712257452170433000,1.28443310546875,-0.049004554748535156,0.033748626708984375,0.03371134400367737
1712257452180432100,1.29443212890625,-0.07767105102539062,-0.03368568420410156,0.013244330883026123
1712257452190431200,1.30443115234375,-0.04431343078613281,-0.0762934684753418,-0.05525895953178406
1712257452200430000,1.31443017578125,0.01729297637939453,-0.08354353904724121,-0.06377315521240234
1712257452210429200,1.32442919921875,0.05706024169921875,-0.06573081016540527,-0.01722314953804016
1712257452220428300,1.33442822265625,0.08719444274902344,-0.06921005249023438,-0.018864184617996216
1712257452230427100,1.34442724609375,0.01438140869140625,-0.03682875633239746,-0.039410948753356934
1712257452240426200,1.35442626953125,-0.03185558319091797,0.004160881042480469,-0.042778581380844116
1712257452250425300,1.36442529296875,-0.03240203857421875,-0.008274555206298828,-0.017499923706054688
1712257452260424400,1.374424560546875,0.002956390380859375,-0.001363515853881836,0.00422099232673645
1712257452270423600,1.384423583984375,0.03587627410888672,-0.03248167037963867,0.02273738384246826
1712257452280422700,1.394422607421875,0.0662546157836914,-0.017494678497314453,0.00022050738334655762
1712257452290421800,1.404421875,0.06556892395019531,-0.017162322998046875,-0.019473791122436523
1712257452300420600,1.414420654296875,0.017182350158691406,0.01580023765563965,-0.056997448205947876
1712257452310419700,1.424419677734375,-0.047702789306640625,0.04279518127441406,-0.07409873604774475
1712257452320418800,1.434418701171875,-0.0787668228149414,0.05419206619262695,-0.06444081664085388
1712257452330418000,1.44441796875,-0.06657600402832031,0.03634214401245117,-0.021917372941970825
1712257452340416800,1.454416748046875,-0.013769149780273438,0.021411895751953125,0.004788637161254883
1712257452350416000,1.464415771484375,0.010244369506835938,-0.0003914833068847656,0.028611093759536743
1712257452360415000,1.4744150390625,0.019914627075195312,0.004087209701538086,-0.0005374550819396973
1712257452370414000,1.4844140625,-0.025422096252441406,-0.0012905597686767578,0.0209653377532959
1712257452380413000,1.494412841796875,-0.0683431625366211,-0.0019197463989257812,0.04211851954460144
1712257452390412000,1.504412109375,-0.013189315795898438,-0.011712312698364258,0.03406566381454468
1712257452400411100,1.5144111328125,0.020111083984375,-0.013119935989379883,0.009086519479751587
1712257452410410000,1.524409912109375,0.10819339752197266,-0.030189037322998047,-0.008622199296951294
1712257452420408800,1.534408935546875,0.11489105224609375,-0.054561614990234375,-0.002058088779449463
1712257452430407700,1.54440771484375,0.052163124084472656,-0.035935163497924805,-0.014134317636489868
1712257452440406500,1.554406494140625,-0.06780624389648438,-0.04219841957092285,-0.020800352096557617
1712257452450405400,1.5644052734375,-0.07028484344482422,0.010780096054077148,-0.025397181510925293
1712257452460404200,1.574404296875,-0.06558990478515625,-0.012691497802734375,-0.021391302347183228
1712257452470402800,1.58440283203125,-0.04675579071044922,-0.013711690902709961,-0.0439089834690094
1712257452480401700,1.594401611328125,-0.025682449340820312,-0.03096294403076172,0.015517443418502808
1712257452490400300,1.604400146484375,-0.033420562744140625,-0.004701852798461914,0.06465157866477966
1712257452500399000,1.614399169921875,0.026040077209472656,-0.00279998779296875,0.06202363967895508
1712257452510397700,1.624397705078125,0.04245281219482422,0.015722036361694336,0.0207730233669281
1712257452520396500,1.634396484375,-0.01520538330078125,-0.000006198883056640625,-0.0075227320194244385
1712257452530395100,1.64439501953125,-0.08950424194335938,0.01232147216796875,-0.005556315183639526
1712257452540394000,1.65439404296875,-0.13961124420166016,0.03084540367126465,-0.02739053964614868
1712257452550392800,1.664392822265625,-0.1058206558227539,0.04659390449523926,-0.010974079370498657
1712257452560391400,1.674391357421875,-0.07206249237060547,0.0577235221862793,0.014738231897354126
1712257452570390300,1.684390380859375,-0.019148826599121094,0.025844812393188477,-0.0033237338066101074
1712257452580388900,1.694388916015625,0.036017417907714844,0.018471956253051758,0.014450758695602417
1712257452590387700,1.7043876953125,0.08870792388916016,0.009055137634277344,0.027229875326156616
1712257452600386300,1.71438623046875,0.07198715209960938,0.011462926864624023,0.026067614555358887
1712257452610385200,1.72438525390625,0.06014442443847656,0.0038814544677734375,0.01574993133544922
1712257452620384000,1.734384033203125,0.03879737854003906,0.007971763610839844,0.015119105577468872
1712257452630382600,1.744382568359375,0.01734638214111328,-0.009132623672485352,0.03405416011810303
1712257452640381400,1.75438134765625,0.029224395751953125,-0.023073911666870117,0.028827518224716187
1712257452650380300,1.76438037109375,0.04089832305908203,-0.04094195365905762,0.03990867733955383
1712257452660379000,1.77437890625,0.033245086669921875,-0.08923697471618652,0.019702285528182983
1712257452670377700,1.784377685546875,0.0014314651489257812,-0.1223301887512207,-0.007537037134170532
1712257452680376600,1.79437646484375,-0.0018663406372070312,-0.10191464424133301,0.0011408329010009766
1712257452690375200,1.804375244140625,-0.031569480895996094,-0.08358240127563477,0.035962700843811035
1712257452700374000,1.8143740234375,-0.07565593719482422,-0.03882241249084473,0.02517157793045044
1712257452710372900,1.824372802734375,-0.06686115264892578,-0.037955522537231445,0.0047310590744018555
1712257452720371500,1.834371337890625,-0.03406333923339844,-0.0181119441986084,-0.0017029941082000732
1712257452730370300,1.844370361328125,-0.07297515869140625,-0.008356332778930664,-0.0029985010623931885
1712257452740369000,1.854368896484375,-0.07572650909423828,-0.028489351272583008,-0.031792134046554565
1712257452750367700,1.86436767578125,-0.032833099365234375,-0.0492863655090332,-0.019448131322860718
1712257452760366600,1.87436669921875,-0.047446250915527344,-0.03157305717468262,0.011789679527282715
1712257452770365200,1.884365234375,-0.014107704162597656,0.012293577194213867,-0.010091841220855713
1712257452780364000,1.894364013671875,-0.016509056091308594,0.031488656997680664,0.0017708241939544678
1712257452790363000,1.90436279296875,-0.03290081024169922,0.03724789619445801,-0.005594313144683838
1712257452800361500,1.914361572265625,-0.0014314651489257812,0.03582262992858887,-0.009931087493896484
1712257452810360300,1.9243603515625,0.049182891845703125,0.027202129364013672,-0.025892794132232666
1712257452820359000,1.93435888671875,0.01601123809814453,0.06158137321472168,-0.029566586017608643
1712257452830357800,1.944357666015625,0.016534805297851562,0.06635665893554688,0.013475418090820312
1712257452840356600,1.954356689453125,-0.011486053466796875,0.08725333213806152,0.015230149030685425
1712257452850355200,1.964355224609375,-0.03212738037109375,0.057218313217163086,0.001811295747756958
1712257452860354000,1.97435400390625,-0.052730560302734375,0.06311178207397461,-0.017488598823547363
1712257452870352600,1.9843525390625,-0.05182361602783203,0.030925750732421875,0.015361219644546509
1712257452880351500,1.9943515625,-0.020010948181152344,-0.0003113746643066406,-0.0026296675205230713
1712257452890350000,2.00435009765625,-0.026749610900878906,-0.0065765380859375,-0.011576145887374878
1712257452900349000,2.014348876953125,-0.004900932312011719,-0.012286901473999023,0.05614250898361206
1712257452910347500,2.024347412109375,-0.009558677673339844,0.011481523513793945,0.05622321367263794
1712257452920346400,2.034346435546875,-0.007071495056152344,0.006650447845458984,0.03970387578010559
1712257452930345000,2.044344970703125,0.03359222412109375,-0.02889847755432129,0.014320343732833862
1712257452940343800,2.05434375,0.011778831481933594,-0.022926807403564453,-0.022589296102523804
1712257452950342400,2.06434228515625,0.006691932678222656,-0.012100696563720703,-0.023143857717514038
1712257452960341200,2.07434130859375,-0.01035308837890625,-0.00614166259765625,0.005193918943405151
1712257452970339800,2.08433984375,-0.029710769653320312,-0.022118091583251953,0.0004830360412597656
1712257452980338700,2.094338623046875,-0.03217124938964844,-0.024287939071655273,-0.011233925819396973
1712257452990337300,2.104337158203125,-0.013002395629882812,-0.043439626693725586,-0.021262794733047485
1712257453000336100,2.114336181640625,-0.013253211975097656,-0.061450958251953125,0.020793437957763672
1712257453010335000,2.1243349609375,-0.028107643127441406,-0.08332705497741699,-0.01614236831665039
1712257453020333600,2.13433349609375,0.011911392211914062,-0.08776283264160156,0.00734788179397583
1712257453030332400,2.14433251953125,-0.0056781768798828125,-0.07486581802368164,0.004533916711807251
1712257453040331300,2.154331298828125,-0.016056060791015625,-0.07410335540771484,-0.021911829710006714
1712257453050329900,2.164329833984375,0.004741668701171875,-0.03765559196472168,-0.021709084510803223
1712257453060328700,2.17432861328125,-0.043778419494628906,-0.004077911376953125,0.01690775156021118
1712257453070327300,2.184327392578125,-0.02016162872314453,0.01640939712524414,0.030941307544708252
1712257453080326100,2.194326171875,0.051499366760253906,0.04355025291442871,0.027606189250946045
1712257453090325000,2.204324951171875,0.05629920959472656,0.05094504356384277,0.001976490020751953
1712257453100323600,2.214323486328125,-0.02252483367919922,0.052696943283081055,-0.017810076475143433
1712257453110322400,2.224322509765625,-0.055731773376464844,0.025002717971801758,-0.052894771099090576
1712257453120321000,2.234321044921875,-0.06264972686767578,0.014172077178955078,-0.03954946994781494
1712257453130320000,2.24431982421875,-0.060044288635253906,-0.008418798446655273,-0.014208346605300903
1712257453140318700,2.254318603515625,-0.07904243469238281,0.00038933753967285156,0.013119250535964966
1712257453150317300,2.2643173828125,-0.062012672424316406,0.015966176986694336,-0.010022789239883423
1712257453160316200,2.274316162109375,-0.030595779418945312,0.02661609649658203,-0.020799756050109863
1712257453170315000,2.28431494140625,-0.03271484375,-0.005697488784790039,-0.017712920904159546
1712257453180313900,2.29431396484375,0.005687713623046875,-0.0276486873626709,0.008839726448059082
1712257453190312400,2.3043125,0.027098655700683594,-0.024656057357788086,0.013259291648864746
1712257453200311300,2.314311279296875,0.02919483184814453,-0.0377964973449707,0.0033282041549682617
1712257453210310100,2.32431005859375,0.060059547424316406,0.00871896743774414,0.0177115797996521
1712257453220309000,2.33430908203125,0.06940841674804688,0.06226158142089844,0.029869794845581055
1712257453230307800,2.344307861328125,0.03354644775390625,0.04043459892272949,0.01116853952407837
1712257453240306700,2.354306640625,0.04323387145996094,0.016000986099243164,-0.00040397047996520996
1712257453250305800,2.364305908203125,-0.011808395385742188,0.013459205627441406,-0.019269853830337524
1712257453260304600,2.3743046875,-0.009401321411132812,0.025249958038330078,-0.006402909755706787
1712257453270303500,2.384303466796875,-0.05704307556152344,0.007416963577270508,-0.008044332265853882
1712257453280302300,2.39430224609375,-0.07586002349853516,-0.015550374984741211,-0.01218193769454956
1712257453290301200,2.40430126953125,-0.09708499908447266,-0.021674394607543945,0.02416449785232544
1712257453300300000,2.414300048828125,-0.08722400665283203,-0.027521610260009766,0.009419351816177368
1712257453310299000,2.424298828125,-0.051192283630371094,-0.0062754154205322266,-0.0203855037689209
1712257453320297700,2.434297607421875,0.0036516189575195312,-0.03881025314331055,0.012431174516677856
1712257453330296600,2.444296630859375,-0.008473396301269531,-0.04054450988769531,0.002481013536453247
1712257453340295400,2.45429541015625,-0.020607948303222656,-0.035103797912597656,-0.021544158458709717
1712257453350294300,2.464294189453125,-0.05186176300048828,-0.02992558479309082,0.015149414539337158
1712257453360293000,2.474293212890625,-0.07581520080566406,-0.025162458419799805,0.01320984959602356
1712257453370292000,2.4842919921875,-0.05189990997314453,-0.015477895736694336,0.03473341464996338
1712257453380290800,2.494290771484375,-0.0305328369140625,-0.014602184295654297,-0.0070593953132629395
1712257453390289700,2.50428955078125,0.017004966735839844,-0.005945682525634766,-0.01255449652671814
1712257453400288500,2.51428857421875,0.07639312744140625,-0.04238128662109375,-0.0031647980213165283
1712257453410287400,2.524287353515625,0.05670738220214844,-0.035561323165893555,-0.007541269063949585
1712257453420286500,2.534286376953125,0.04432392120361328,-0.019823312759399414,-0.03939810395240784
1712257453430285300,2.544285400390625,-0.02780914306640625,-0.0022573471069335938,-0.043897807598114014
1712257453440284200,2.5542841796875,-0.10690498352050781,0.05037856101989746,-0.03658738732337952
1712257453450282800,2.56428271484375,-0.11869049072265625,0.04461240768432617,-0.010985702276229858
1712257453460281600,2.574281494140625,-0.07060623168945312,0.05816531181335449,0.008363783359527588
1712257453470280400,2.584280517578125,-0.0032739639282226562,0.04039740562438965,0.01934182643890381
1712257453480279300,2.594279296875,0.023308753967285156,0.04198884963989258,0.008641868829727173
1712257453490278100,2.604278076171875,0.011716842651367188,0.0309600830078125,0.005977839231491089
1712257453500277000,2.614277099609375,-0.057178497314453125,0.03117656707763672,0.013541996479034424
1712257453510275800,2.62427587890625,-0.06847667694091797,0.028453826904296875,0.0045278072357177734
1712257453520274400,2.6342744140625,-0.051163673400878906,0.0022079944610595703,-0.023311913013458252
1712257453530273300,2.644273193359375,-0.01974201202392578,-0.003908634185791016,-0.02934122085571289
1712257453540272000,2.654272216796875,0.023296356201171875,0.0009255409240722656,-0.03287044167518616
1712257453550270700,2.664270751953125,0.037421226501464844,-0.04621767997741699,-0.06259366869926453
1712257453560269300,2.674269287109375,-0.013195991516113281,-0.061964988708496094,-0.05326932668685913
1712257453570268200,2.68426806640625,-0.049404144287109375,-0.027715444564819336,-0.026374787092208862
1712257453580267000,2.69426708984375,-0.0616302490234375,-0.051090240478515625,0.012570232152938843
1712257453590265600,2.704265625,-0.09793758392333984,-0.01399683952331543,0.060702770948410034
1712257453600264400,2.714264404296875,-0.09346199035644531,-0.00820016860961914,0.07185536623001099
1712257453610263000,2.724262939453125,-0.1055450439453125,-0.04381132125854492,0.046488940715789795
1712257453620262000,2.734261962890625,-0.08657646179199219,-0.07193875312805176,0.011454373598098755
1712257453630260700,2.7442607421875,-0.07490062713623047,-0.07081151008605957,-0.00984218716621399
1712257453640259600,2.754259521484375,-0.1063995361328125,-0.03578996658325195,0.009106993675231934
1712257453650258200,2.764258056640625,-0.1737203598022461,-0.04426169395446777,0.0019264519214630127
1712257453660257000,2.774257080078125,-0.11659717559814453,-0.04286456108093262,-0.04639613628387451
1712257453670255600,2.784255615234375,0.019257545471191406,0.009905815124511719,-0.015613824129104614
1712257453680254500,2.79425439453125,0.09013938903808594,0.05186772346496582,0.018493711948394775
1712257453690253300,2.80425341796875,0.11316585540771484,0.009897947311401367,-0.021475106477737427
1712257453700252000,2.814251953125,0.10518169403076172,-0.011210203170776367,-0.014251708984375
1712257453710250800,2.824250732421875,0.039786338806152344,-0.008780479431152344,0.00882008671760559
1712257453720249300,2.834249267578125,0.022554397583007812,0.0022666454315185547,0.014171868562698364
1712257453730248200,2.844248291015625,-0.02563190460205078,0.0319061279296875,-0.010038793087005615
1712257453740247000,2.8542470703125,0.0005769729614257812,0.05375957489013672,0.012999176979064941
1712257453750245600,2.86424560546875,0.012644767761230469,0.01501011848449707,0.008638203144073486
1712257453760244500,2.874244384765625,0.02002716064453125,-0.007261514663696289,-0.006260305643081665
1712257453770243300,2.884243408203125,0.015383720397949219,0.011416435241699219,-0.0189494788646698
1712257453780242000,2.894241943359375,0.005885124206542969,-0.0007960796356201172,-0.024256348609924316
1712257453790240800,2.90424072265625,0.0417938232421875,-0.015083074569702148,-0.04622739553451538
1712257453800239600,2.914239501953125,0.024888038635253906,0.0022068023681640625,-0.02911067008972168
1712257453810238200,2.92423828125,0.015149116516113281,-0.0020411014556884766,-0.013982623815536499
1712257453820237000,2.934237060546875,-0.013850212097167969,0.0013275146484375,-0.020481348037719727
1712257453830235600,2.944235595703125,-0.03818798065185547,-0.001998424530029297,-0.022101789712905884
1712257453840234500,2.954234375,-0.01942157745361328,-0.007736682891845703,-0.03576800227165222
1712257453850233000,2.964233154296875,0.01371002197265625,0.0056722164154052734,-0.022953003644943237
1712257453860232000,2.97423193359375,0.05652427673339844,0.0043566226959228516,-0.0010583996772766113
1712257453870230800,2.984230712890625,0.09232616424560547,-0.00958108901977539,-0.022477567195892334
1712257453880229400,2.9942294921875,0.07305335998535156,-0.023596763610839844,-0.021581649780273438
1712257453890228200,3.004228271484375,0.09933757781982422,-0.03552412986755371,0.003599196672439575
1712257453900227000,3.01422705078125,0.12098217010498047,-0.04559493064880371,0.02362695336341858
1712257453910225700,3.0242255859375,0.21702861785888672,-0.029999732971191406,0.026538103818893433
1712257453920224300,3.034224365234375,0.29413414001464844,-0.012766361236572266,0.031124621629714966
1712257453930223000,3.04422314453125,0.4505891799926758,0.012802839279174805,0.09003785252571106
1712257453940221700,3.0542216796875,0.9082965850830078,-0.014776945114135742,0.025902926921844482
1712257453950220500,3.064220458984375,1.5253114700317383,-0.09718966484069824,-0.10627271234989166
1712257453960219100,3.07421923828125,1.8601970672607422,-0.21578121185302734,-0.17553339898586273
1712257453970218000,3.084218017578125,1.9456939697265625,-0.17824339866638184,-0.033586323261260986
1712257453980216600,3.094216552734375,1.6971569061279297,0.04394793510437012,0.07625675201416016
1712257453990215400,3.10421533203125,1.2612724304199219,0.23893332481384277,0.1385669708251953
1712257454000214000,3.114214111328125,0.6396751403808594,0.3555796146392822,0.16214695572853088
1712257454010212900,3.124212890625,0.20463943481445312,0.37823939323425293,0.06804105639457703
1712257454020211700,3.134211669921875,0.1393880844116211,0.3822591304779053,-0.00301167368888855
1712257454030210300,3.144210205078125,0.36890697479248047,0.3357257843017578,0.10616350173950195
1712257454040209200,3.154209228515625,0.5849952697753906,0.31893396377563477,0.21476927399635315
1712257454050208000,3.1642080078125,0.7125778198242188,0.15800738334655762,0.08301118016242981
1712257454060206600,3.17420654296875,0.8209905624389648,-0.22032451629638672,-0.20614266395568848
1712257454070205400,3.184205322265625,1.1108121871948242,-0.723546028137207,-0.4325266182422638
1712257454080204300,3.194204345703125,1.0168418884277344,-1.5625998973846436,-0.7010630369186401
1712257454090203000,3.204202880859375,1.3254356384277344,-0.17672419548034668,0.01411464810371399
1712257454100201700,3.21420166015625,1.7503128051757812,1.050933837890625,0.5474560856819153
1712257454110200300,3.224200439453125,1.1831369400024414,0.4616222381591797,0.30751439929008484
1712257454120199200,3.23419921875,0.2100238800048828,-0.030025482177734375,0.2845025956630707
1712257454130198000,3.244197998046875,-1.0534796714782715,-0.3953113555908203,0.1822488009929657
1712257454140196600,3.254196533203125,-1.8999695777893066,-0.48041820526123047,0.15045741200447083
1712257454150332400,3.26433251953125,-2.3581743240356445,-0.35812902450561523,0.08999556303024292
1712257454160331300,3.274331298828125,-2.5162177085876465,-0.16765880584716797,-0.050776317715644836
1712257454170329900,3.284329833984375,-2.144228458404541,-0.09385871887207031,-0.16717354953289032
1712257454180328700,3.29432861328125,-1.249044418334961,-0.04765176773071289,-0.1875385195016861
1712257454190327600,3.30432763671875,0.03540754318237305,-0.0331878662109375,-0.230119988322258
1712257454200326100,3.314326171875,1.2287321090698242,0.009795665740966797,-0.3501339554786682
1712257454210325000,3.324324951171875,1.7462525367736816,-0.24216890335083008,-0.23969702422618866
1712257454220323600,3.334323486328125,1.5293045043945312,-0.4305562973022461,0.029799282550811768
1712257454230322400,3.344322509765625,0.8459000587463379,-0.4999985694885254,0.08590418100357056
1712257454240321300,3.3543212890625,-0.2780876159667969,-0.5389914512634277,0.040986329317092896
1712257454250320100,3.364320068359375,-1.4287776947021484,-0.5945167541503906,-0.06616108119487762
1712257454260319000,3.374319091796875,-1.8938236236572266,-0.059801578521728516,0.032474517822265625
1712257454270318000,3.384318115234375,-1.9202260971069336,0.31890296936035156,0.10058942437171936
1712257454280317000,3.39431689453125,-1.7193889617919922,0.27234697341918945,0.1272873878479004
1712257454290316000,3.40431591796875,-1.2638030052185059,0.07684183120727539,0.09475332498550415
1712257454300315000,3.41431494140625,-0.816131591796875,0.04401826858520508,0.25056347250938416
1712257454310314000,3.42431396484375,-0.261293888092041,0.032840728759765625,0.30299240350723267
1712257454320313000,3.43431298828125,0.26491355895996094,0.07190895080566406,0.30267634987831116
1712257454330312200,3.444312255859375,0.556551456451416,0.1883554458618164,0.3473045229911804
1712257454340311000,3.45431103515625,0.5444126129150391,0.09768962860107422,0.14610740542411804
1712257454350310100,3.46431005859375,0.7208185195922852,0.019725322723388672,0.048242270946502686
1712257454360309200,3.474309326171875,0.7520561218261719,-0.08844614028930664,-0.028633028268814087
1712257454370308400,3.484308349609375,0.4328498840332031,-0.16602277755737305,-0.01448911428451538
1712257454380307500,3.494307373046875,-0.05540752410888672,-0.2521977424621582,0.004397749900817871
1712257454390306300,3.504306396484375,-0.48352718353271484,-0.22719478607177734,0.049793243408203125
1712257454400305400,3.514305419921875,-0.8838033676147461,-0.053757667541503906,0.18485191464424133
1712257454410304500,3.524304443359375,-1.0612292289733887,0.06994342803955078,0.11975887417793274
1712257454420303600,3.5343037109375,-0.9659032821655273,0.000537872314453125,-0.10039323568344116
1712257454430302700,3.544302734375,-0.8437838554382324,-0.14910316467285156,-0.029710233211517334
1712257454440301600,3.554301513671875,-0.7676181793212891,-0.16020774841308594,-0.04630589485168457
1712257454450300700,3.56430078125,-0.7095646858215332,-0.18650531768798828,-0.09698948264122009
1712257454460299800,3.5742998046875,-0.731590747833252,-0.27536869049072266,-0.01807558536529541
1712257454470299000,3.584298828125,-0.8463900089263916,-0.24599647521972656,0.1545710563659668
1712257454480297700,3.594297607421875,-0.603792667388916,-0.017148971557617188,0.02594071626663208
1712257454490296800,3.604296875,-0.16685199737548828,-0.38379764556884766,0.3564593493938446
1712257454500296000,3.6142958984375,0.4450082778930664,-0.7246823310852051,0.28883838653564453
1712257454510295000,3.624294921875,0.21550273895263672,-0.4827566146850586,-0.15032365918159485
1712257454520294100,3.634294189453125,-0.3427577018737793,-0.1824817657470703,0.0051434338092803955
1712257454530293200,3.644293212890625,-1.0187873840332031,-0.16487979888916016,0.30922624468803406
1712257454540292000,3.6542919921875,-1.5475091934204102,-0.19517230987548828,0.3761526942253113
1712257454550291200,3.664291259765625,-1.7984490394592285,-0.22042083740234375,0.24561363458633423
1712257454560290000,3.6742900390625,-1.6784265041351318,-0.17751312255859375,0.24979168176651
1712257454570289000,3.684288818359375,-1.1946496963500977,-0.15180110931396484,0.37437906861305237
1712257454580287700,3.694287841796875,-0.6491224765777588,-0.14205169677734375,0.43827518820762634
1712257454590286300,3.704286376953125,0.00017261505126953125,-0.13681316375732422,0.3594799041748047
1712257454600285200,3.71428515625,0.3496994972229004,-0.15671539306640625,0.20617589354515076
1712257454610284000,3.724283935546875,0.2984604835510254,-0.16051769256591797,0.09008246660232544
1712257454620282600,3.73428271484375,0.13592243194580078,-0.12646961212158203,0.08514651656150818
1712257454630281500,3.744281494140625,0.007902145385742188,-0.0855875015258789,0.01576828956604004
1712257454640280000,3.754280029296875,-0.13058090209960938,-0.09922504425048828,-0.011089622974395752
1712257454650279000,3.76427880859375,-0.13447809219360352,-0.09148120880126953,0.04950520396232605
1712257454660277500,3.774277587890625,-0.24906539916992188,0.020752906799316406,0.240384042263031
1712257454670276400,3.7842763671875,-0.42005443572998047,0.022340774536132812,0.229535311460495
1712257454680275000,3.79427490234375,-0.5743007659912109,-0.011983871459960938,0.16670817136764526
1712257454690273800,3.804273681640625,-0.7554597854614258,-0.07476425170898438,0.17685985565185547
1712257454700272400,3.8142724609375,-0.8749096393585205,-0.14077281951904297,0.2146371304988861
1712257454710271200,3.824271240234375,-1.1536674499511719,-0.10056114196777344,0.23655551671981812
1712257454720269800,3.834269775390625,-1.2559540271759033,-0.24982929229736328,0.11779358983039856
1712257454730268700,3.8442685546875,-1.2854156494140625,-0.44663238525390625,0.05294725298881531
1712257454740267300,3.854267333984375,-1.4807286262512207,-0.7829704284667969,0.04055982828140259
1712257454750266000,3.86426611328125,-1.631575107574463,-0.648643970489502,0.2506648302078247
1712257454760265000,3.874264892578125,-1.561079978942871,-0.11559009552001953,0.5308761596679688
1712257454770263600,3.884263671875,-1.2676429748535156,0.10926628112792969,0.5815958976745605
1712257454780262400,3.894262451171875,-0.7725224494934082,-0.23032379150390625,0.33077558875083923
1712257454790261200,3.90426123046875,-0.07601213455200195,-0.7277331352233887,0.09264826774597168
1712257454800260000,3.914260009765625,0.6608819961547852,-0.9034667015075684,0.007869422435760498
1712257454810258700,3.9242587890625,1.1444878578186035,-0.6766080856323242,-0.18074285984039307
1712257454820257500,3.934257568359375,1.3846054077148438,-0.4895162582397461,-0.23935763537883759
1712257454830256000,3.944256103515625,1.512486457824707,-0.3152589797973633,-0.20988047122955322
1712257454840255000,3.9542548828125,1.4069786071777344,-0.1868453025817871,-0.2962809205055237
1712257454850253600,3.964253662109375,1.094374656677246,-0.016898632049560547,-0.1636480838060379
1712257454860252400,3.97425244140625,0.7591180801391602,0.13081979751586914,0.004756107926368713
1712257454870251300,3.984251220703125,0.3634634017944336,0.19687509536743164,0.23247656226158142
1712257454880249900,3.994249755859375,0.051532745361328125,0.20611286163330078,0.33463752269744873
1712257454890248700,4.004248779296875,-0.2742619514465332,0.1047964096069336,0.27454042434692383
1712257454900247600,4.01424755859375,-0.3999462127685547,-0.033692359924316406,0.13138307631015778
1712257454910246100,4.02424609375,-0.4283933639526367,-0.17086172103881836,-0.008456200361251831
1712257454920245000,4.034244873046875,-0.2433300018310547,-0.35321950912475586,-0.17400522530078888
1712257454930243800,4.044243896484375,0.05599784851074219,-0.39980173110961914,-0.21866276860237122
1712257454940242400,4.054242431640625,0.4006967544555664,-0.323178768157959,-0.15127521753311157
1712257454950241300,4.0642412109375,0.5637168884277344,-0.1960587501525879,0.0003987997770309448
1712257454960239900,4.074239990234375,0.5784034729003906,-0.13157415390014648,0.18372341990470886
1712257454970238700,4.08423876953125,0.5221872329711914,-0.20553159713745117,0.2135322093963623
1712257454980237300,4.0942373046875,0.4121837615966797,-0.1814579963684082,-0.04895547032356262
1712257454990236200,4.104236083984375,0.5319967269897461,-0.13480329513549805,-0.05431932210922241
1712257455000235000,4.114235107421875,0.7065396308898926,-0.18039560317993164,0.06503915786743164
1712257455010233900,4.12423388671875,0.531623363494873,-0.17321348190307617,0.20207345485687256
1712257455020232400,4.134232421875,0.3803071975708008,-0.12522220611572266,0.14155849814414978
1712257455030231300,4.144231201171875,0.36291980743408203,-0.11609888076782227,-0.006858110427856445
1712257455040230000,4.15422998046875,0.3891110420227051,-0.10744905471801758,-0.11621472239494324
1712257455050228700,4.164228759765625,0.3057594299316406,-0.07079219818115234,-0.034688159823417664
1712257455060227300,4.174227294921875,0.15512371063232422,-0.18708181381225586,-0.0032561421394348145
1712257455070226200,4.18422607421875,0.1138620376586914,-0.12760305404663086,0.01279015839099884
1712257455080224800,4.194224853515625,-0.14114093780517578,-0.19420242309570312,-0.050536736845970154
1712257455090223400,4.204223388671875,-0.17742347717285156,-0.1102285385131836,-0.07243169099092484
1712257455100222200,4.21422216796875,-0.2517814636230469,-0.15494155883789062,-0.04960523545742035
1712257455110220800,4.224220703125,-0.3286914825439453,-0.1888599395751953,-0.0035862624645233154
1712257455120219600,4.2342197265625,-0.2909879684448242,-0.21643686294555664,0.006662160158157349
1712257455130218500,4.244218505859375,-0.1484851837158203,-0.19651031494140625,-0.03456329554319382
1712257455140217000,4.254217041015625,0.029521942138671875,-0.17949199676513672,-0.0327790305018425
1712257455150216000,4.2642158203125,0.17687511444091797,-0.10931015014648438,0.10802103579044342
1712257455160214800,4.27421484375,0.2683267593383789,-0.059670448303222656,0.17607948184013367
1712257455170213400,4.28421337890625,0.16495800018310547,-0.05701780319213867,0.08421792089939117
1712257455180212200,4.294212158203125,0.060362815856933594,-0.13926410675048828,0.05894172191619873
1712257455190211000,4.304211181640625,-0.043265342712402344,-0.10983085632324219,0.010316520929336548
1712257455200209700,4.314209716796875,-0.1771221160888672,-0.028419017791748047,-0.26491600275039673
1712257455210208500,4.32420849609375,-0.33701229095458984,-0.1022348403930664,-0.26776123046875
1712257455220207000,4.33420703125,-0.3847475051879883,-0.18142175674438477,-0.08599778264760971
1712257455230206000,4.3442060546875,-0.2110128402709961,-0.24509525299072266,0.05175977945327759
1712257455240204800,4.354204833984375,0.14059925079345703,-0.2489328384399414,0.17402787506580353
1712257455250203400,4.364203369140625,0.32375621795654297,-0.19189739227294922,0.1775965541601181
1712257455260202200,4.3742021484375,0.37373828887939453,-0.10613250732421875,0.12531083822250366
1712257455270201000,4.384201171875,0.27011966705322266,-0.034732818603515625,0.07008162140846252
1712257455280199700,4.39419970703125,0.10034465789794922,0.017100811004638672,0.09619748592376709
1712257455290198500,4.404198486328125,-0.32155799865722656,-0.01700878143310547,0.11777889728546143
1712257455300197400,4.414197265625,-0.2232952117919922,-0.04151487350463867,0.12542518973350525
1712257455310196000,4.424196044921875,-0.08258247375488281,-0.0677030086517334,0.16319113969802856
1712257455320194800,4.43419482421875,0.20778846740722656,-0.12078857421875,0.20667171478271484
1712257455330193700,4.444193603515625,0.45151805877685547,-0.16740775108337402,0.1611861288547516
1712257455340192300,4.454192138671875,0.48697948455810547,-0.19605517387390137,0.06720849871635437
1712257455350191000,4.464191162109375,0.28673648834228516,-0.1714792251586914,-0.03603944182395935
1712257455360190000,4.47418994140625,0.3591947555541992,-0.08118224143981934,-0.09246662259101868
1712257455370189000,4.48418896484375,0.48456478118896484,0.00182342529296875,-0.12437069416046143
1712257455380188000,4.49418798828125,0.44307708740234375,-0.06093859672546387,-0.15011492371559143
1712257455390186800,4.504186767578125,0.2112274169921875,-0.12304854393005371,-0.13759490847587585
1712257455400185600,4.514185546875,-0.010359764099121094,-0.10450959205627441,-0.12617921829223633
1712257455410184400,4.524184326171875,-0.05511951446533203,-0.007027626037597656,-0.11340397596359253
1712257455420183300,4.534183349609375,0.2506237030029297,0.07197284698486328,-0.04147845506668091
1712257455430182100,4.54418212890625,0.5184507369995117,0.028509855270385742,0.0785769522190094
1712257455440181000,4.554180908203125,0.6581344604492188,-0.05854535102844238,0.1346193552017212
1712257455450179800,4.564179931640625,0.5939035415649414,-0.08679652214050293,0.12492313981056213
1712257455460178700,4.5741787109375,0.53680419921875,-0.08629870414733887,0.031215906143188477
1712257455470177500,4.584177490234375,0.4413728713989258,-0.13851070404052734,-0.02320733666419983
1712257455480176400,4.59417626953125,0.2714529037475586,-0.07747507095336914,0.027703851461410522
1712257455490175200,4.60417529296875,0.04543304443359375,-0.013334035873413086,0.0820179283618927
1712257455500174000,4.614174072265625,-0.09624481201171875,0.039642333984375,0.040746599435806274
1712257455510173000,4.6241728515625,-0.2715024948120117,0.07144784927368164,0.04353514313697815
1712257455520171800,4.634171875,-0.3114185333251953,0.05898928642272949,0.012833833694458008
1712257455530170600,4.644170654296875,-0.17081832885742188,0.0007691383361816406,-0.020005613565444946
1712257455540169700,4.654169677734375,0.057071685791015625,-0.0915212631225586,-0.06303292512893677
1712257455550168600,4.66416845703125,0.09535408020019531,-0.12469625473022461,-0.06708395481109619
1712257455560167200,4.674167236328125,0.03586006164550781,-0.10370922088623047,-0.04118168354034424
1712257455570166000,4.684166015625,-0.14974403381347656,-0.09431076049804688,-0.04818028211593628
1712257455580165000,4.6941650390625,-0.18407154083251953,-0.05001020431518555,0.027019977569580078
1712257455590163700,4.704163818359375,-0.053328514099121094,-0.10314011573791504,0.04775598645210266
1712257455600162600,4.71416259765625,0.06497669219970703,-0.14287447929382324,0.061714619398117065
1712257455610161700,4.72416162109375,0.13773822784423828,-0.15874433517456055,0.03230157494544983
1712257455620160500,4.734160400390625,0.07224369049072266,-0.11205887794494629,-0.0358620285987854
1712257455630159400,4.744159423828125,0.04848194122314453,-0.04947328567504883,-0.014424800872802734
1712257455640158000,4.754157958984375,0.09493350982666016,-0.005898237228393555,0.03748968243598938
1712257455650156800,4.76415673828125,0.012134552001953125,0.01589822769165039,0.05187070369720459
1712257455660155600,4.77415576171875,-0.14280986785888672,0.028728723526000977,-0.03679436445236206
1712257455670154200,4.784154296875,-0.1495656967163086,0.07586979866027832,-0.06795385479927063
1712257455680153000,4.794153076171875,-0.132537841796875,0.09291315078735352,0.005557537078857422
1712257455690151700,4.804151611328125,-0.11111164093017578,0.04426217079162598,0.02813941240310669
1712257455700150500,4.814150634765625,0.048523902893066406,-0.014517068862915039,-0.00539553165435791
1712257455710149000,4.824149169921875,0.09749126434326172,-0.05977320671081543,-0.06435802578926086
1712257455720148000,4.83414794921875,0.05535125732421875,-0.07603073120117188,-0.07682973146438599
1712257455730146600,4.844146484375,0.03975105285644531,-0.028188705444335938,0.0015391707420349121
1712257455740145400,4.8541455078125,0.07720375061035156,0.04756903648376465,0.06611740589141846
1712257455750144000,4.86414404296875,0.17626953125,0.040769338607788086,0.056468844413757324
1712257455760142800,4.874142822265625,0.2899608612060547,0.028373003005981445,0.05874353647232056
1712257455770141700,4.8841416015625,0.22475242614746094,0.006119489669799805,0.03293830156326294
1712257455780140300,4.894140380859375,0.1309490203857422,0.01906585693359375,-0.012902677059173584
1712257455790139100,4.90413916015625,-0.060357093811035156,-0.0037174224853515625,-0.0006610751152038574
1712257455800138000,4.914137939453125,-0.06493663787841797,-0.019193649291992188,-0.0005703568458557129
1712257455810136600,4.924136474609375,-0.036561012268066406,-0.011281013488769531,0.008798360824584961
1712257455820135400,4.934135498046875,0.05820941925048828,-0.047052621841430664,-0.011622011661529541
1712257455830134000,4.944134033203125,0.07382583618164062,-0.07529306411743164,0.002110123634338379
1712257455840132900,4.9541328125,0.0035142898559570312,-0.03015589714050293,0.03744399547576904
1712257455850131700,4.964131591796875,-0.06649398803710938,-0.002652406692504883,0.03638070821762085
1712257455860130300,4.97413037109375,-0.09108448028564453,-0.032217979431152344,0.056014418601989746
1712257455870129200,4.984129150390625,0.05436992645263672,-0.059262752532958984,0.033271193504333496
1712257455880128000,4.9941279296875,0.09929466247558594,-0.052701711654663086,0.031052887439727783
1712257455890126600,5.004126708984375,0.08218097686767578,-0.07800960540771484,0.01245790719985962
1712257455900125400,5.01412548828125,0.08220767974853516,-0.06862926483154297,0.027470171451568604
1712257455910124300,5.024124267578125,0.04425334930419922,-0.04108071327209473,0.04934424161911011
1712257455920123000,5.034122802734375,-0.06996917724609375,-0.03154277801513672,0.06721830368041992
1712257455930121700,5.044121826171875,-0.09802436828613281,-0.06531834602355957,0.01264333724975586
1712257455940120300,5.054120361328125,-0.05215167999267578,-0.08868908882141113,0.025759756565093994
1712257455950119200,5.064119140625,-0.0055484771728515625,-0.07974123954772949,-0.01065036654472351
1712257455960117800,5.07411767578125,0.07424068450927734,-0.08671927452087402,-0.009734779596328735
1712257455970116600,5.08411669921875,0.06520366668701172,-0.04738354682922363,-0.0019598007202148438
1712257455980115200,5.094115234375,0.04696846008300781,-0.009037256240844727,-0.026530563831329346
1712257455990114000,5.104114013671875,-0.013669967651367188,-0.00866246223449707,-0.01609516143798828
1712257456000113000,5.11411279296875,-0.10007762908935547,0.06417965888977051,0.06580108404159546
1712257456010111500,5.124111572265625,-0.06874275207519531,0.10951805114746094,0.06043410301208496
1712257456020110300,5.1341103515625,-0.06604576110839844,0.08267045021057129,0.05301344394683838
1712257456030109200,5.144109130859375,-0.02518749237060547,-0.003703594207763672,-0.030198246240615845
1712257456040107800,5.154107666015625,0.034384727478027344,-0.04108309745788574,-0.06621602177619934
1712257456050106600,5.164106689453125,0.12247943878173828,-0.056404829025268555,-0.11565572023391724
1712257456060105200,5.174105224609375,0.03119659423828125,-0.0630044937133789,-0.08954733610153198
1712257456070104000,5.18410400390625,-0.1555624008178711,-0.032483816146850586,-0.06681698560714722
1712257456080102700,5.1941025390625,-0.14330768585205078,-0.007619380950927734,-0.030058830976486206
1712257456090101500,5.2041015625,-0.025953292846679688,0.011187076568603516,0.012000024318695068
1712257456100100000,5.21410009765625,0.024091720581054688,0.009578943252563477,-0.00015729665756225586
1712257456110099000,5.224098876953125,0.01183319091796875,0.010511398315429688,-0.012202531099319458
1712257456120097500,5.23409765625,-0.06015300750732422,0.039632320404052734,-0.0067334771156311035
1712257456130096400,5.244096435546875,-0.10537147521972656,0.05764198303222656,0.006823420524597168
1712257456140095200,5.25409521484375,-0.061758995056152344,0.07718586921691895,0.037585824728012085
1712257456150093800,5.26409375,-0.05886077880859375,0.05603218078613281,0.008735984563827515
1712257456160092700,5.2740927734375,0.02781200408935547,-0.0008594989776611328,0.01285669207572937
1712257456170091300,5.28409130859375,0.04728889465332031,-0.08827972412109375,-0.026718467473983765
1712257456180090000,5.294090087890625,0.04706096649169922,-0.08317971229553223,-0.029018640518188477
1712257456190089000,5.3040888671875,0.0034942626953125,-0.05341815948486328,-0.009437531232833862
1712257456200087600,5.314087646484375,-0.07364273071289062,-0.09282517433166504,-0.05752512812614441
1712257456210086400,5.32408642578125,-0.05299854278564453,-0.09039998054504395,-0.04269814491271973
1712257456220085000,5.3340849609375,0.012762069702148438,-0.019506216049194336,0.016247659921646118
1712257456230083800,5.344083740234375,-0.012249946594238281,0.03915286064147949,0.1110781729221344
1712257456240082400,5.35408251953125,-0.04869651794433594,0.010124921798706055,0.05128994584083557
1712257456250081300,5.364081298828125,-0.041843414306640625,-0.034139394760131836,-0.04787299036979675
1712257456260080000,5.374080078125,-0.0399627685546875,-0.030402660369873047,-0.07472920417785645
1712257456270078700,5.38407861328125,-0.09779930114746094,-0.007972240447998047,-0.034497618675231934
1712257456280077600,5.39407763671875,-0.062233924865722656,0.021766185760498047,-0.00028261542320251465
1712257456290076400,5.404076416015625,0.03805255889892578,0.022742748260498047,-0.02241414785385132
1712257456300075300,5.4140751953125,0.05946540832519531,0.05680561065673828,0.06795051693916321
1712257456310073900,5.424073974609375,0.02614116668701172,0.030087947845458984,0.09757551550865173
1712257456320072700,5.43407275390625,0.03113079071044922,0.005877494812011719,0.02824944257736206
1712257456330071300,5.4440712890625,0.07182025909423828,0.006216287612915039,0.016898691654205322
1712257456340070100,5.454070068359375,0.10762882232666016,0.004350423812866211,0.0014133155345916748
1712257456350068700,5.46406884765625,0.03824424743652344,-0.012501239776611328,-0.01334148645401001
1712257456360067600,5.474067626953125,-0.11255073547363281,-0.029664278030395508,-0.0357397198677063
1712257456370066400,5.48406640625,-0.12953948974609375,-0.050946712493896484,-0.059256166219711304
1712257456380065000,5.49406494140625,-0.10151958465576172,-0.022736072540283203,-0.04958125948905945
1712257456390064000,5.504064208984375,-0.06643867492675781,-0.029887676239013672,0.01905384659767151
1712257456400063000,5.51406298828125,-0.007450103759765625,-0.03912639617919922,0.0362277626991272
1712257456410061800,5.524061767578125,-0.015357017517089844,-0.06786489486694336,0.01683574914932251
1712257456420061000,5.53406103515625,-0.01131439208984375,-0.05342984199523926,0.009330302476882935
1712257456430059800,5.544059814453125,-0.028822898864746094,-0.06765985488891602,-0.04875051975250244
1712257456440059000,5.554058837890625,0.02547168731689453,-0.10103249549865723,-0.029787689447402954
1712257456450058000,5.56405810546875,0.02201080322265625,-0.06882309913635254,-0.027509480714797974
1712257456460056800,5.574056884765625,0.016236305236816406,-0.017799854278564453,0.008799344301223755
1712257456470056000,5.584055908203125,-0.0036745071411132812,0.015550613403320312,0.04135632514953613
1712257456480055000,5.594054931640625,-0.05676078796386719,0.059696197509765625,0.016774028539657593
1712257456490054100,5.60405419921875,-0.0640249252319336,0.02855372428894043,-0.06055757403373718
1712257456500053200,5.61405322265625,-0.07629680633544922,-0.0020294189453125,-0.08665245771408081
1712257456510052400,5.62405224609375,-0.007293701171875,-0.022659778594970703,-0.1004481315612793
1712257456520051500,5.634051513671875,-0.01494598388671875,0.007124423980712891,-0.025717049837112427
1712257456530050600,5.644050537109375,-0.04146003723144531,0.07196450233459473,0.03410103917121887
1712257456540049700,5.654049560546875,-0.02911853790283203,0.03704428672790527,0.0281049907207489
1712257456550048800,5.664048828125,-0.026215553283691406,0.02573418617248535,0.009440749883651733
1712257456560047900,5.6740478515625,-0.03295135498046875,0.03143906593322754,0.023950576782226562
1712257456570047000,5.684046875,-0.03722381591796875,0.03222060203552246,0.049864262342453
1712257456580046000,5.694046142578125,-0.0009250640869140625,0.002376556396484375,0.056185781955718994
1712257456590045000,5.704044921875,0.05185699462890625,-0.04325604438781738,-0.002560257911682129
1712257456600044000,5.7140439453125,0.09702682495117188,-0.05161690711975098,-0.018000632524490356
1712257456610043100,5.724043212890625,0.05824565887451172,-0.04750180244445801,0.03356727957725525
1712257456620042200,5.734042236328125,0.00762176513671875,-0.007779121398925781,0.05094212293624878
1712257456630041300,5.744041259765625,0.02899646759033203,-0.04037618637084961,0.008054137229919434
1712257456640040400,5.75404052734375,-0.06002044677734375,-0.005197286605834961,-0.03185147047042847
1712257456650039600,5.76403955078125,-0.0748291015625,0.013025283813476562,-0.027173995971679688
1712257456660038700,5.77403857421875,-0.03209400177001953,0.02615666389465332,0.0160520076751709
1712257456670037800,5.784037841796875,-0.001186370849609375,0.012544870376586914,0.003809034824371338
1712257456680036900,5.794036865234375,-0.09695911407470703,-0.04015183448791504,-0.03192278742790222
1712257456690035700,5.80403564453125,-0.1737194061279297,-0.06870460510253906,-0.020598620176315308
1712257456700034600,5.81403466796875,-0.11168193817138672,-0.09215736389160156,0.0070150792598724365
1712257456710033700,5.82403369140625,0.009792327880859375,-0.0972447395324707,-0.021893024444580078
1712257456720032500,5.834032470703125,0.058854103088378906,-0.08365607261657715,-0.038841843605041504
1712257456730031000,5.844031005859375,0.01676464080810547,-0.028895139694213867,-0.03129419684410095
1712257456740030000,5.854030029296875,-0.05355644226074219,0.0002841949462890625,-0.014146745204925537
1712257456750028800,5.86402880859375,-0.02994060516357422,0.006035327911376953,0.029635578393936157
1712257456760027600,5.874027587890625,0.0008487701416015625,0.02389216423034668,0.015321731567382812
1712257456770026500,5.884026611328125,0.007678985595703125,0.013079166412353516,-0.05413141846656799
1712257456780025000,5.894025146484375,0.023908615112304688,-0.002135753631591797,-0.03139415383338928
1712257456790024000,5.90402392578125,0.10962104797363281,-0.039025306701660156,-0.013615399599075317
1712257456800022500,5.9140224609375,0.07067394256591797,-0.03225851058959961,-0.01049312949180603
1712257456810021400,5.924021484375,-0.0041961669921875,0.0007231235504150391,-0.011197388172149658
1712257456820020000,5.93402001953125,-0.00939178466796875,0.025748014450073242,-0.011998265981674194
1712257456830018800,5.944018798828125,-0.011956214904785156,0.004619598388671875,-0.013541311025619507
1712257456840017400,5.954017333984375,-0.03833198547363281,0.01900196075439453,-0.029612600803375244
1712257456850016300,5.964016357421875,-0.026212692260742188,-0.022337913513183594,-0.021499216556549072
1712257456860015000,5.97401513671875,-0.011785507202148438,-0.01786518096923828,0.029469281435012817
1712257456870014000,5.984013916015625,-0.009385108947753906,0.03959345817565918,0.05811041593551636
1712257456880012500,5.994012451171875,-0.03801536560058594,0.04644131660461426,0.053327322006225586
1712257456890011400,6.004011474609375,-0.08794784545898438,0.02142953872680664,0.021733850240707397
1712257456900010200,6.01401025390625,-0.08988285064697266,-0.0015156269073486328,-0.0029087960720062256
1712257456910008800,6.0240087890625,-0.029603958129882812,-0.010008096694946289,-0.008184313774108887
1712257456920007700,6.034007568359375,0.011437416076660156,-0.022984027862548828,0.000704348087310791
1712257456930006300,6.04400634765625,0.028372764587402344,-0.03544211387634277,0.019324570894241333
1712257456940005000,6.054005126953125,-0.012345314025878906,-0.05453681945800781,0.00010377168655395508
1712257456950003700,6.064003662109375,0.020982742309570312,-0.0587468147277832,-0.037882983684539795
1712257456960002600,6.07400244140625,0.03488445281982422,-0.04521536827087402,-0.009365648031234741
1712257456970001400,6.08400146484375,0.029473304748535156,0.021610736846923828,0.020949482917785645
1712257456980000000,6.094,0.031495094299316406,0.042263031005859375,0.03845950961112976
1712257456989998800,6.103998779296875,0.03149890899658203,0.023409366607666016,0.04373365640640259
1712257456999997700,6.113997802734375,-0.020965576171875,0.02774357795715332,0.0039972662925720215
1712257457009996300,6.123996337890625,-0.061272621154785156,0.05756998062133789,-0.024755507707595825
1712257457019995100,6.1339951171875,-0.10855293273925781,0.06509709358215332,-0.014811992645263672
1712257457029994000,6.143993896484375,-0.13178062438964844,0.0579838752746582,-0.007806926965713501
1712257457039992600,6.15399267578125,-0.08078479766845703,0.019745826721191406,-0.043903857469558716
1712257457049991400,6.163991455078125,-0.053885459899902344,0.020211219787597656,-0.03862261772155762
1712257457059990000,6.173989990234375,-0.05087471008300781,0.04674983024597168,-0.03517141938209534
1712257457069988900,6.18398876953125,-0.021338462829589844,0.022272348403930664,-0.06692701578140259
1712257457079987700,6.19398779296875,-0.032665252685546875,-0.011381149291992188,-0.08589920401573181
1712257457089986300,6.203986328125,-0.010861396789550781,-0.02227163314819336,-0.04702141880989075
1712257457099985200,6.213985107421875,0.05133533477783203,-0.03444266319274902,0.0008334517478942871
1712257457109983700,6.223983642578125,0.04140663146972656,-0.03121185302734375,0.005172014236450195
1712257457119982600,6.233982666015625,-0.00450897216796875,-0.03489565849304199,0.014164566993713379
1712257457129981200,6.243981201171875,0.018938064575195312,-0.06699299812316895,0.03697657585144043
1712257457139980000,6.25397998046875,0.0898580551147461,-0.0928502082824707,0.028016895055770874
1712257457149979000,6.263978759765625,0.08619403839111328,-0.11261558532714844,0.01356363296508789
1712257457159977500,6.2739775390625,0.032042503356933594,-0.09817028045654297,0.0015270113945007324
1712257457169976000,6.28397607421875,-0.0003833770751953125,-0.04595017433166504,0.0011886954307556152
1712257457179975000,6.293974853515625,-0.08022212982177734,-0.050266265869140625,0.012302517890930176
1712257457189973800,6.303973876953125,-0.09755897521972656,-0.017154932022094727,-0.00018718838691711426
1712257457199972400,6.313972412109375,-0.08363056182861328,-0.008490324020385742,-0.014783799648284912
1712257457209971000,6.323970947265625,0.01639270782470703,-0.01870584487915039,0.011679351329803467
1712257457219969800,6.3339697265625,0.04920387268066406,-0.01393580436706543,0.035420507192611694
1712257457229968400,6.343968505859375,-0.011264801025390625,0.016838550567626953,0.04486948251724243
1712257457239967200,6.35396728515625,-0.013884544372558594,0.06542253494262695,0.05233713984489441
1712257457249966000,6.363966064453125,-0.008894920349121094,0.08384442329406738,0.014458805322647095
1712257457259965000,6.37396484375,-0.03714942932128906,0.048536062240600586,-0.02733859419822693
1712257457269963500,6.383963623046875,-0.06537055969238281,0.058452606201171875,-0.02504068613052368
1712257457279962400,6.39396240234375,-0.05993175506591797,0.07506036758422852,-0.027318567037582397
1712257457289961200,6.403961181640625,0.02956867218017578,-0.012156009674072266,0.03752228617668152
1712257457299959800,6.413959716796875,-0.06056976318359375,0.06629776954650879,-0.016456037759780884
1712257457309958700,6.423958740234375,-0.016407012939453125,0.04559755325317383,-0.06637999415397644
1712257457319957200,6.433957275390625,0.05665874481201172,-0.0019576549530029297,-0.003997385501861572
1712257457329956000,6.4439560546875,0.06236839294433594,0.016299009323120117,0.033677101135253906
1712257457339954700,6.45395458984375,0.09653472900390625,-0.0027153491973876953,0.012981802225112915
1712257457349953500,6.46395361328125,0.06584930419921875,0.003091096878051758,-0.020990490913391113
1712257457359952400,6.473952392578125,-0.012746810913085938,-0.0701906681060791,-0.02513393759727478
1712257457369951000,6.483950927734375,-0.0128021240234375,-0.06055927276611328,0.004410535097122192
1712257457379949800,6.49394970703125,0.017787933349609375,-0.020440101623535156,0.013651221990585327
1712257457389948700,6.50394873046875,-0.04976940155029297,-0.008905410766601562,-0.00962144136428833
1712257457399947500,6.513947509765625,-0.1505107879638672,0.006267547607421875,-0.03255471587181091
1712257457409946000,6.523946044921875,-0.15258026123046875,0.019708633422851562,-0.023880213499069214
1712257457419945000,6.533945068359375,-0.10177421569824219,-0.00593876838684082,-0.009629040956497192
1712257457429943600,6.543943603515625,-0.08454513549804688,-0.012298583984375,0.0025633573532104492
1712257457439942400,6.5539423828125,-0.08897972106933594,-0.03035116195678711,-0.0037468373775482178
1712257457449941000,6.56394091796875,-0.09841251373291016,-0.03811168670654297,-0.019833922386169434
1712257457459939800,6.57393994140625,-0.0792856216430664,-0.06682848930358887,-0.05046403408050537
1712257457469938700,6.583938720703125,0.004047393798828125,-0.10133981704711914,-0.028100669384002686
1712257457479937500,6.5939375,0.0939626693725586,-0.04752826690673828,-0.004407733678817749
1712257457489936400,6.603936279296875,0.10247135162353516,-0.024816274642944336,0.03597003221511841
1712257457499935200,6.613935302734375,0.053748130798339844,0.011484384536743164,0.03097739815711975
1712257457509934300,6.623934326171875,0.0030107498168945312,0.022559165954589844,0.0286405086517334
1712257457519933200,6.63393310546875,0.05073833465576172,0.006368875503540039,0.03549540042877197
1712257457529932300,6.643932373046875,-0.07397842407226562,0.06228446960449219,-0.01811540126800537
1712257457539931400,6.653931396484375,-0.021379470825195312,-0.045206308364868164,-0.04926705360412598
1712257457549930500,6.663930419921875,-0.03335762023925781,-0.03545570373535156,-0.052635401487350464
1712257457559929300,6.673929443359375,-0.01691722869873047,0.020590782165527344,-0.018645942211151123
1712257457569928400,6.683928466796875,-0.019408226013183594,0.0281069278717041,0.014796465635299683
1712257457579927600,6.693927490234375,-0.0767507553100586,0.03258562088012695,0.004640102386474609
1712257457589926400,6.703926513671875,-0.09552192687988281,0.016908645629882812,-0.014184147119522095
1712257457599925500,6.713925537109375,-0.06628799438476562,0.015144824981689453,-0.034998536109924316
1712257457609924600,6.723924560546875,-0.0992279052734375,0.05617856979370117,-0.017237156629562378
1712257457619923700,6.733923828125,-0.09597587585449219,0.007781028747558594,0.02405908703804016
1712257457629922800,6.7439228515625,-0.06647205352783203,-0.018540382385253906,0.006272375583648682
1712257457639922000,6.753921875,-0.011018753051757812,-0.021897315979003906,0.035486191511154175
1712257457649921000,6.763921142578125,0.034630775451660156,-0.03157830238342285,0.059146344661712646
1712257457659920000,6.773919921875,0.053691864013671875,-0.028444766998291016,0.05394482612609863
1712257457669919000,6.7839189453125,0.07500839233398438,-0.03448152542114258,0.03711709380149841
1712257457679918000,6.79391796875,0.11053657531738281,-0.023411273956298828,0.004547744989395142
1712257457689917200,6.803917236328125,0.07178497314453125,-0.06023097038269043,0.02109423279762268
1712257457699916000,6.813916015625,-0.014913558959960938,-0.05131220817565918,-0.01292574405670166
1712257457709915100,6.8239150390625,-0.032230377197265625,-0.03980445861816406,-0.03032386302947998
1712257457719914200,6.833914306640625,-0.04710578918457031,-0.01165461540222168,-0.01679512858390808
1712257457729913300,6.843913330078125,-0.05471992492675781,0.011466503143310547,-0.010583937168121338
1712257457739912400,6.853912353515625,-0.06206798553466797,0.03133440017700195,0.03143998980522156
1712257457749911300,6.863911376953125,-0.10510444641113281,0.045754432678222656,0.027470916509628296
1712257457759910400,6.873910400390625,-0.10723495483398438,0.033167123794555664,0.018720358610153198
1712257457769909500,6.883909423828125,-0.08528518676757812,0.008141756057739258,-0.04263767600059509
1712257457779908400,6.893908447265625,-0.05387401580810547,0.007216930389404297,-0.06426656246185303
1712257457789907500,6.903907470703125,-0.044036865234375,0.03496289253234863,-0.017973512411117554
1712257457799906300,6.91390625,-0.074737548828125,0.02383279800415039,0.004561483860015869
1712257457809905200,6.9239052734375,-0.09578609466552734,0.02919316291809082,0.03440183401107788
1712257457819904000,6.933904052734375,-0.054706573486328125,0.030324459075927734,0.032170265913009644
1712257457829902600,6.943902587890625,0.022002220153808594,-0.015332698822021484,-0.0333198606967926
1712257457839901400,6.9539013671875,0.036022186279296875,-0.05008959770202637,-0.04544883966445923
1712257457849900000,6.963900146484375,0.08804512023925781,-0.04802703857421875,0.022080451250076294
1712257457859899000,6.97389892578125,0.06105232238769531,-0.0385594367980957,0.03804674744606018
1712257457869897500,6.9838974609375,-0.008841514587402344,-0.020055294036865234,-0.016066521406173706
1712257457879896300,6.993896240234375,-0.049755096435546875,-0.007303953170776367,-0.038149893283843994
1712257457889895200,7.003895263671875,-0.07380008697509766,-0.009384393692016602,-0.028424620628356934
1712257457899893800,7.013893798828125,-0.05721569061279297,-0.03761649131774902,-0.0016137361526489258
1712257457909892600,7.023892578125,-0.004914283752441406,-0.07230067253112793,-0.01360100507736206
1712257457919891200,7.03389111328125,-0.020087242126464844,-0.0888373851776123,-0.020521968603134155
1712257457929889800,7.043889892578125,-0.0043315887451171875,-0.08803606033325195,0.018544644117355347
1712257457939888600,7.053888671875,0.006565093994140625,-0.07730484008789062,0.06881332397460938
1712257457949887500,7.063887451171875,0.022272109985351562,-0.06873512268066406,0.0550251305103302
1712257457959886000,7.073885986328125,-0.012369155883789062,-0.021491527557373047,0.028451621532440186
1712257457969885000,7.083885009765625,0.003444671630859375,-0.008388519287109375,0.02850055694580078
1712257457979883500,7.093883544921875,0.026689529418945312,0.0038280487060546875,0.03612217307090759
1712257457989882400,7.10388232421875,-0.007343292236328125,0.039316415786743164,-0.01573169231414795
1712257457999881200,7.113881103515625,-0.0386962890625,0.0400850772857666,-0.04451826214790344
1712257458009879800,7.1238798828125,-0.0626993179321289,0.04497218132019043,-0.07743877172470093
1712257458019878700,7.133878662109375,-0.04110240936279297,0.0373997688293457,-0.06887802481651306
1712257458029877500,7.14387744140625,-0.03379631042480469,0.010430097579956055,-0.014851957559585571
1712257458039876000,7.1538759765625,-0.04075813293457031,0.00005745887756347656,0.021423250436782837
1712257458049875000,7.163875,-0.06442451477050781,-0.008044719696044922,0.026201337575912476
1712257458059873500,7.17387353515625,-0.023529052734375,0.02009439468383789,0.05944705009460449
1712257458069872400,7.183872314453125,0.02453136444091797,0.02456378936767578,0.03631395101547241
1712257458079871200,7.193871337890625,0.02946758270263672,-0.0043184757232666016,0.0390239953994751
1712257458089869800,7.203869873046875,0.051077842712402344,-0.01372385025024414,0.01999250054359436
1712257458099868700,7.21386865234375,0.06791496276855469,-0.03273892402648926,0.05116716027259827
1712257458109867500,7.223867431640625,0.015344619750976562,-0.008734464645385742,0.01522219181060791
1712257458119866000,7.2338662109375,-0.04428386688232422,0.00755620002746582,-0.0008692443370819092
1712257458129865000,7.243864990234375,-0.0752115249633789,0.01185750961303711,0.0053198933601379395
1712257458139863800,7.25386376953125,-0.06317138671875,0.01421976089477539,0.013741523027420044
1712257458149862400,7.2638623046875,-0.06554317474365234,-0.00008916854858398438,-0.018151134252548218
1712257458159861200,7.273861328125,-0.056038856506347656,-0.035805463790893555,-0.03466600179672241
1712257458169859800,7.28385986328125,-0.0874643325805664,-0.04699063301086426,-0.057380735874176025
1712257458179858700,7.293858642578125,-0.09509468078613281,-0.041079044342041016,-0.043247371912002563
1712257458189857500,7.303857421875,-0.05478191375732422,-0.03532886505126953,-0.007725030183792114
1712257458199856000,7.313856201171875,-0.03594970703125,-0.02003765106201172,0.026659637689590454
1712257458209855000,7.32385498046875,0.006943702697753906,-0.019228458404541016,0.04262822866439819
1712257458219853800,7.333853759765625,0.03065967559814453,-0.015842199325561523,0.012474924325942993
1712257458229852400,7.343852294921875,0.020813941955566406,-0.05544590950012207,0.03283035755157471
1712257458239851300,7.353851318359375,0.036910057067871094,-0.045815229415893555,0.0338360071182251
1712257458249849900,7.363849853515625,0.0337066650390625,0.00016570091247558594,-0.0007625818252563477
1712257458259848700,7.3738486328125,0.059332847595214844,-0.014196395874023438,-0.012869536876678467
1712257458269847300,7.383847412109375,0.049126625061035156,-0.07201361656188965,-0.026840299367904663
1712257458279846100,7.39384619140625,0.06757354736328125,-0.06022834777832031,-0.04988798499107361
1712257458289844700,7.4038447265625,0.021370887756347656,0.011356115341186523,-0.03415235877037048
1712257458299843600,7.413843505859375,-0.05317115783691406,0.016970157623291016,-0.023146629333496094
1712257458309842200,7.42384228515625,-0.11544990539550781,0.02163982391357422,-0.024296224117279053
1712257458319841000,7.433841064453125,-0.11553573608398438,0.02173161506652832,-0.02313360571861267
1712257458329839600,7.443839599609375,0.025426864624023438,-0.03479170799255371,-0.020374387502670288
1712257458339838500,7.45383837890625,-0.08520030975341797,-0.028441905975341797,0.011275440454483032
1712257458349837000,7.463837158203125,-0.18358898162841797,-0.013474225997924805,0.021728515625
1712257458359836000,7.4738359375,-0.13076496124267578,-0.011681318283081055,-0.004023909568786621
1712257458369834800,7.483834716796875,-0.05174827575683594,-0.03807187080383301,-0.02298244833946228
1712257458379833300,7.493833251953125,0.055678367614746094,-0.022650718688964844,-0.0061959922313690186
1712257458389832200,7.503832275390625,0.08389949798583984,-0.018459796905517578,0.012458950281143188
1712257458399831000,7.5138310546875,0.11935234069824219,-0.009627342224121094,-0.00728335976600647
1712257458409829600,7.52382958984375,0.11898326873779297,0.02273392677307129,0.004705637693405151
1712257458419828500,7.533828369140625,0.07327842712402344,0.05219388008117676,-0.00012215971946716309
1712257458429827000,7.5438271484375,0.020763397216796875,0.09481239318847656,0.025865823030471802
1712257458439826000,7.553825927734375,0.028375625610351562,0.0838479995727539,0.027924180030822754
1712257458449824800,7.56382470703125,0.04567909240722656,0.02464437484741211,-0.006087630987167358
1712257458459823400,7.5738232421875,0.048270225524902344,0.00014448165893554688,-0.02585458755493164
1712257458469822200,7.583822265625,-0.013920783996582031,-0.02400827407836914,-0.013844102621078491
1712257458479821000,7.593821044921875,0.0005350112915039062,-0.01237177848815918,0.02225327491760254
1712257458489819600,7.603819580078125,-0.03531932830810547,0.021015405654907227,-0.004465162754058838
1712257458499818500,7.613818603515625,-0.0734548568725586,0.018079280853271484,0.0000972449779510498
1712257458509817300,7.6238173828125,-0.10164165496826172,0.054570674896240234,0.021579980850219727
1712257458519816000,7.63381591796875,-0.1319713592529297,0.05679154396057129,-0.005328118801116943
1712257458529814800,7.643814697265625,-0.10941505432128906,0.03437352180480957,0.013148009777069092
1712257458539813600,7.653813720703125,-0.06774616241455078,0.009772539138793945,0.014497309923171997
1712257458549812200,7.663812255859375,-0.059729576110839844,-0.011957883834838867,-0.0034776031970977783
1712257458559811000,7.67381103515625,-0.044739723205566406,-0.018651962280273438,0.0074312686920166016
1712257458569810000,7.683809814453125,-0.07783126831054688,-0.015072822570800781,0.018108397722244263
1712257458579808800,7.693808837890625,0.00384521484375,-0.025275707244873047,0.03324738144874573
1712257458589807600,7.7038076171875,0.013538360595703125,-0.04198002815246582,-0.021991074085235596
1712257458599806500,7.713806396484375,-0.024829864501953125,-0.05822300910949707,-0.014250397682189941
1712257458609805300,7.723805419921875,-0.06073188781738281,-0.06508588790893555,0.01718217134475708
1712257458619804200,7.73380419921875,-0.03925514221191406,-0.08836078643798828,0.01712268590927124
1712257458629803000,7.743802978515625,-0.05150318145751953,-0.07738304138183594,-0.016743749380111694
1712257458639801900,7.7538017578125,-0.09733295440673828,-0.05673336982727051,-0.006851762533187866
1712257458649801000,7.763801025390625,-0.02115154266357422,-0.06694197654724121,-0.003811448812484741
1712257458659799800,7.7737998046875,0.035635948181152344,-0.08118271827697754,-0.03642520308494568
1712257458669798400,7.78379833984375,0.051479339599609375,-0.051784515380859375,-0.07232090830802917
1712257458679797200,7.79379736328125,0.00289154052734375,-0.006604671478271484,-0.020509541034698486
1712257458689796400,7.80379638671875,-0.047682762145996094,0.03966259956359863,0.05968958139419556
1712257458699795000,7.813794921875,-0.050075531005859375,0.05411267280578613,0.044833362102508545
1712257458709793800,7.823793701171875,0.004988670349121094,0.016012907028198242,0.04373204708099365
1712257458719793000,7.83379296875,0.04043865203857422,-0.00606846809387207,0.0396135151386261
1712257458729791700,7.843791748046875,0.07343673706054688,0.020036935806274414,0.06845641136169434
1712257458739790600,7.85379052734375,-0.0033550262451171875,0.05457735061645508,0.054057419300079346
1712257458749789400,7.86378955078125,-0.06287384033203125,0.046550750732421875,-0.01457628607749939
1712257458759788300,7.873788330078125,-0.11492919921875,0.027801990509033203,-0.0509972870349884
1712257458769787100,7.883787109375,-0.040126800537109375,0.052190303802490234,-0.03660362958908081
1712257458779786000,7.893785888671875,-0.006131172180175781,0.06251072883605957,-0.014734715223312378
1712257458789784800,7.903784912109375,0.037461280822753906,0.05356550216674805,-0.05725625157356262
1712257458799783700,7.91378369140625,0.05230998992919922,0.022977352142333984,-0.01283004879951477
1712257458809782500,7.923782470703125,0.062335968017578125,0.021285295486450195,0.04090219736099243
1712257458819781400,7.933781494140625,0.08914566040039062,0.026962757110595703,0.07880723476409912
1712257458829780200,7.9437802734375,0.029814720153808594,0.03507685661315918,0.06040066480636597
1712257458839779000,7.953779052734375,0.001682281494140625,-0.019248485565185547,0.003391563892364502
1712257458849778000,7.96377783203125,0.047351837158203125,-0.06271815299987793,0.01655137538909912
1712257458859776800,7.97377685546875,0.037586212158203125,-0.03052830696105957,0.05005604028701782
1712257458869775600,7.983775634765625,-0.0033731460571289062,-0.04837369918823242,0.0331805944442749
1712257458879774200,7.993774169921875,-0.015612602233886719,-0.03278613090515137,0.007454216480255127
