time,seconds_elapsed,z,y,x
1712257444263610000,0.048610107421875,0,0,0
1712257444273610200,0.0586103515625,0.06888580322265625,0.0016641616821289062,0.08554834127426147
1712257444283611000,0.06861083984375,0.15278863906860352,0.03980398178100586,0.011606812477111816
1712257444293612300,0.0786123046875,-0.01490163803100586,0.043181419372558594,-0.08246809244155884
1712257444303614200,0.0886142578125,0.22035694122314453,-0.003930568695068359,-0.07884442806243896
1712257444313617200,0.0986171875,0.40701866149902344,-0.1850433349609375,-0.06849473714828491
1712257444323621000,0.10862109375,0.3331761360168457,-0.2116069793701172,-0.21073073148727417
1712257444333626000,0.118626220703125,0.46845149993896484,0.0161895751953125,-0.24785304069519043
1712257444343632100,0.128632080078125,0.6109781265258789,0.11029624938964844,-0.15064391493797302
1712257444353639200,0.13863916015625,0.9788002967834473,0.06750345230102539,-0.314389705657959
1712257444363647200,0.148647216796875,1.1769790649414062,-0.07292985916137695,-0.41805243492126465
1712257444373656000,0.158656005859375,1.3153066635131836,-0.044103145599365234,-0.2629711627960205
1712257444383665400,0.16866552734375,1.0003819465637207,-0.19867801666259766,-0.057873159646987915
1712257444393675500,0.178675537109375,0.7591886520385742,-0.2959589958190918,0.24064761400222778
1712257444403686000,0.188685791015625,0.7800431251525879,-0.0723409652709961,0.34767934679985046
1712257444413696300,0.1986962890625,0.6112732887268066,-0.09813737869262695,-0.05507981777191162
1712257444423705900,0.208705810546875,0.38817548751831055,-0.16428756713867188,-0.5493263602256775
1712257444433711900,0.2187119140625,0.025369644165039062,-0.1503734588623047,-0.8790446519851685
1712257444443718000,0.2287177734375,-0.3654346466064453,0.1188211441040039,-0.9227614402770996
1712257444453724000,0.238723876953125,-0.6684942245483398,0.22894859313964844,-0.7773217558860779
1712257444463730000,0.24872998046875,-0.6906847953796387,0.14463424682617188,-0.5467287302017212
1712257444473736000,0.25873583984375,-0.30742835998535156,0.08873558044433594,-0.3182727098464966
1712257444483742000,0.268741943359375,0.20682764053344727,0.08428239822387695,-0.06952744722366333
1712257444493748000,0.278748046875,0.5436363220214844,0.08968257904052734,0.024981945753097534
1712257444503754000,0.28875390625,0.6571741104125977,0.1676945686340332,-0.0010199248790740967
1712257444513759700,0.298759765625,0.8010964393615723,0.2320117950439453,-0.027647897601127625
1712257444523765800,0.308765869140625,0.8183255195617676,0.25051164627075195,-0.175609290599823
1712257444533771800,0.318771728515625,0.7632217407226562,0.29520273208618164,-0.2249930500984192
1712257444543777800,0.32877783203125,0.7488770484924316,0.3470625877380371,-0.3261301517486572
1712257444553783800,0.33878369140625,0.6498842239379883,0.3261561393737793,-0.4435308575630188
1712257444563789800,0.348789794921875,0.3941469192504883,0.27690935134887695,-0.5032074451446533
1712257444573795800,0.3587958984375,0.05832242965698242,0.2578854560852051,-0.26082348823547363
1712257444583801900,0.3688017578125,-0.17699289321899414,0.22417020797729492,0.018282324075698853
1712257444593808000,0.378807861328125,-0.11093282699584961,0.16701984405517578,0.10404486954212189
1712257444603813600,0.388813720703125,0.021036624908447266,0.13238525390625,0.07751600444316864
1712257444613819600,0.398819580078125,0.11530160903930664,0.1424236297607422,0.010451748967170715
1712257444623825700,0.40882568359375,0.2247638702392578,0.18604421615600586,0.04870821535587311
1712257444633831700,0.418831787109375,0.3685121536254883,0.20562314987182617,0.1492110788822174
1712257444643837700,0.428837646484375,0.5192041397094727,0.1768798828125,0.1431894600391388
1712257444653843700,0.43884375,0.5934205055236816,0.1422567367553711,0.08979183435440063
1712257444663849700,0.448849609375,0.6352534294128418,0.11112451553344727,-0.01170186698436737
1712257444673855700,0.458855712890625,0.720883846282959,0.07801961898803711,-0.04433049261569977
1712257444683861800,0.46886181640625,0.6764039993286133,0.0755929946899414,-0.02882501482963562
1712257444693867800,0.47886767578125,0.4852890968322754,0.07120227813720703,-0.01318688690662384
1712257444703873500,0.48887353515625,0.2333664894104004,0.03852987289428711,0.06879709661006927
1712257444713879600,0.498879638671875,0.04235029220581055,0.07322549819946289,-0.04288339614868164
1712257444723885600,0.508885498046875,-0.06165790557861328,0.0715031623840332,-0.2387702465057373
1712257444733891600,0.5188916015625,-0.005203723907470703,0.12285232543945312,-0.33617791533470154
1712257444743897600,0.528897705078125,0.129364013671875,0.1833181381225586,-0.3571263551712036
1712257444753903600,0.538903564453125,0.27559328079223633,0.15335798263549805,-0.3816317319869995
1712257444763909600,0.54890966796875,0.4339003562927246,0.13260364532470703,-0.27590876817703247
1712257444773915600,0.55891552734375,0.5816941261291504,0.06794023513793945,-0.016621023416519165
1712257444783921700,0.568921630859375,0.7058682441711426,-0.012557029724121094,0.2173030525445938
1712257444793927700,0.578927734375,0.6285767555236816,0.022682666778564453,0.2051609307527542
1712257444803933400,0.588933349609375,0.36236000061035156,0.049985408782958984,0.005401670932769775
1712257444813939500,0.598939453125,0.05022287368774414,0.07573938369750977,-0.1579776108264923
1712257444823945500,0.608945556640625,-0.2430405616760254,0.13025379180908203,-0.19797766208648682
1712257444833951500,0.618951416015625,-0.4961862564086914,0.17281436920166016,-0.25378721952438354
1712257444843957500,0.62895751953125,-0.5327997207641602,0.18669986724853516,-0.32965290546417236
1712257444853963500,0.638963623046875,-0.2470388412475586,0.11915111541748047,-0.2353466898202896
1712257444863969500,0.648969482421875,0.07568502426147461,0.029864788055419922,-0.008664906024932861
1712257444873975600,0.6589755859375,0.22436237335205078,-0.0213470458984375,0.07095164060592651
1712257444883981300,0.668981201171875,0.18344736099243164,-0.030733585357666016,-0.0820106565952301
1712257444893987300,0.6789873046875,0.10126304626464844,-0.007473945617675781,-0.09166361391544342
1712257444903993300,0.688993408203125,0.01040506362915039,0.016065120697021484,-0.005471527576446533
1712257444913999000,0.6989990234375,-0.08918190002441406,-0.035230159759521484,0.010234236717224121
1712257444924005000,0.709005126953125,-0.13584375381469727,-0.019233226776123047,0.023200392723083496
1712257444934011100,0.71901123046875,-0.14466094970703125,0.011223316192626953,0.038202762603759766
1712257444944017200,0.72901708984375,-0.18228626251220703,0.0042724609375,-0.04006899893283844
1712257444954023000,0.73902294921875,-0.1683826446533203,0.026643753051757812,-0.058501601219177246
1712257444964029000,0.74902880859375,-0.042484283447265625,0.08710956573486328,0.020273417234420776
1712257444974035000,0.759034912109375,0.18442440032958984,0.10003852844238281,0.06051355600357056
1712257444984040700,0.769040771484375,0.5405902862548828,0.10196208953857422,-0.027436673641204834
1712257444994046700,0.779046630859375,0.7854776382446289,0.0957784652709961,-0.15373043715953827
1712257445004052700,0.789052734375,0.7707324028015137,0.09526777267456055,-0.2632603347301483
1712257445014058500,0.79905859375,0.546903133392334,0.06837177276611328,-0.26186037063598633
1712257445024064500,0.809064453125,0.24304437637329102,0.01730489730834961,-0.1496686190366745
1712257445034070500,0.819070556640625,0.02388906478881836,-0.027669429779052734,0.0066550374031066895
1712257445044076300,0.829076171875,-0.1082158088684082,-0.06558752059936523,0.10878446698188782
1712257445054082300,0.839082275390625,-0.1692647933959961,-0.09140491485595703,0.11591494083404541
1712257445064088300,0.84908837890625,-0.16070175170898438,-0.07205772399902344,0.0999612808227539
1712257445074094300,0.85909423828125,-0.07882976531982422,-0.0037260055541992188,-0.019657492637634277
1712257445084100000,0.86910009765625,0.11808586120605469,-0.0008935928344726562,-0.09086132049560547
1712257445094106000,0.879106201171875,0.4104175567626953,-0.007200717926025391,-0.12078693509101868
1712257445104112000,0.889112060546875,0.5483012199401855,0.013699531555175781,-0.10580992698669434
1712257445114118000,0.899117919921875,0.5774688720703125,0.07915639877319336,-0.09119592607021332
1712257445124124000,0.9091240234375,0.5473408699035645,0.060573577880859375,-0.046563178300857544
1712257445134130000,0.9191298828125,0.4118952751159668,0.04396200180053711,-0.09383654594421387
1712257445144136000,0.929135986328125,0.13407182693481445,0.09655475616455078,-0.09964731335639954
1712257445154142000,0.939141845703125,-0.14867210388183594,0.1060032844543457,-0.10881061851978302
1712257445164147700,0.949147705078125,-0.404632568359375,0.11232900619506836,-0.1085602194070816
1712257445174153700,0.95915380859375,-0.5412354469299316,0.11690616607666016,-0.09417968988418579
1712257445184159700,0.96915966796875,-0.5139169692993164,0.1439075469970703,-0.0988207757472992
1712257445194165800,0.979165771484375,-0.3058171272277832,0.13087987899780273,-0.1178663969039917
1712257445204171800,0.989171875,-0.03655385971069336,0.09609556198120117,-0.13337071239948273
1712257445214177800,0.999177734375,0.18103933334350586,0.09503316879272461,-0.12631478905677795
1712257445224183800,1.009183837890625,0.31605005264282227,0.08805179595947266,-0.09643211960792542
1712257445234189800,1.01918994140625,0.4174180030822754,0.051140785217285156,-0.020394742488861084
1712257445244195800,1.02919580078125,0.44799327850341797,0.06953001022338867,0.06939893960952759
1712257445254201600,1.03920166015625,0.39019203186035156,0.06215810775756836,0.05983582139015198
1712257445264207600,1.04920751953125,0.23600006103515625,0.053096771240234375,-0.0007303953170776367
1712257445274213600,1.059213623046875,0.014534950256347656,0.04322671890258789,0.011197865009307861
1712257445284219600,1.0692197265625,-0.1993727684020996,0.04384899139404297,0.024329572916030884
1712257445294225700,1.0792255859375,-0.28931570053100586,0.06562328338623047,-0.04698920249938965
1712257445304231700,1.089231689453125,-0.2290663719177246,0.061138153076171875,-0.11806479096412659
1712257445314237700,1.09923779296875,-0.0724339485168457,0.0349273681640625,-0.046833306550979614
1712257445324243700,1.10924365234375,0.0952768325805664,0.04257678985595703,0.06643283367156982
1712257445334249700,1.119249755859375,0.24181652069091797,0.049533843994140625,0.15961182117462158
1712257445344255700,1.129255859375,0.33529186248779297,0.045607566833496094,0.1756572127342224
1712257445354261500,1.139261474609375,0.2639460563659668,0.04935121536254883,0.14475005865097046
1712257445364267500,1.149267578125,0.11487913131713867,0.06574773788452148,0.08293458819389343
1712257445374273500,1.1592734375,-0.03618144989013672,0.053244590759277344,0.0476076602935791
1712257445384279600,1.169279541015625,-0.14742136001586914,0.046059608459472656,-0.03842523694038391
1712257445394285600,1.17928564453125,-0.2295670509338379,0.04488372802734375,-0.03823840618133545
1712257445404291600,1.18929150390625,-0.2835230827331543,0.06890153884887695,0.005010455846786499
1712257445414297600,1.199297607421875,-0.2864651679992676,0.08033514022827148,-0.0039574503898620605
1712257445424303600,1.2093037109375,-0.20121431350708008,0.0319218635559082,0.005746424198150635
1712257445434309600,1.2193095703125,-0.0660238265991211,-0.010447502136230469,0.09504705667495728
1712257445444315600,1.229315673828125,0.02969217300415039,-0.05730438232421875,0.1116984486579895
1712257445454321400,1.2393212890625,0.08220100402832031,-0.057158470153808594,0.08527335524559021
1712257445464327400,1.249327392578125,0.23844432830810547,-0.015790939331054688,0.030381709337234497
1712257445474333400,1.25933349609375,0.35582542419433594,-0.009627819061279297,-0.016037404537200928
1712257445484339500,1.26933935546875,0.34588193893432617,-0.005511760711669922,-0.13000057637691498
1712257445494345500,1.279345458984375,0.25312280654907227,-0.012886524200439453,-0.1634899526834488
1712257445504351500,1.2893515625,0.1393413543701172,-0.03071117401123047,-0.021911948919296265
1712257445514357500,1.299357421875,-0.0002493858337402344,-0.030110836029052734,0.019820868968963623
1712257445524363500,1.309363525390625,-0.16131114959716797,-0.033995628356933594,-0.06017094850540161
1712257445534369500,1.31936962890625,-0.23115825653076172,0.005684852600097656,-0.19586804509162903
1712257445544375300,1.329375244140625,-0.2490549087524414,0.00825643539428711,-0.23597939312458038
1712257445554381300,1.33938134765625,-0.1927800178527832,-0.015715599060058594,-0.1256394237279892
1712257445564387300,1.34938720703125,-0.054065704345703125,0.009440422058105469,-0.03202086687088013
1712257445574393300,1.359393310546875,0.09151983261108398,0.025065898895263672,-0.07715637981891632
1712257445584399400,1.3693994140625,0.14073610305786133,0.05439567565917969,-0.18479886651039124
1712257445594405400,1.3794052734375,0.17060422897338867,0.06888961791992188,-0.1849673092365265
1712257445604411400,1.389411376953125,0.21945524215698242,0.07773065567016602,-0.05416351556777954
1712257445614417400,1.39941748046875,0.19343090057373047,0.05665874481201172,0.07983392477035522
1712257445624423400,1.40942333984375,0.12206840515136719,0.06721878051757812,0.19567063450813293
1712257445634429400,1.419429443359375,-0.036818504333496094,0.06712865829467773,0.1858997941017151
1712257445644435200,1.429435302734375,-0.1934814453125,0.025032520294189453,0.13626614212989807
1712257445654441200,1.439441162109375,-0.3017268180847168,0.036826133728027344,0.15043053030967712
1712257445664447200,1.449447265625,-0.3442354202270508,0.06949424743652344,0.11389917135238647
1712257445674453200,1.459453369140625,-0.2750988006591797,0.07106637954711914,0.002548724412918091
1712257445684459300,1.469459228515625,-0.06270503997802734,0.05095052719116211,-0.07055720686912537
1712257445694465300,1.47946533203125,0.14120864868164062,0.05974626541137695,-0.0538821816444397
1712257445704471300,1.48947119140625,0.2385854721069336,0.06320905685424805,0.013565093278884888
1712257445714477300,1.499477294921875,0.2595820426940918,0.018869400024414062,0.08439639210700989
1712257445724483300,1.5094833984375,0.24321985244750977,0.05919981002807617,0.04214248061180115
1712257445734489300,1.5194892578125,0.2703404426574707,0.08369779586791992,0.006482541561126709
1712257445744495000,1.5294951171875,0.24139118194580078,0.04548072814941406,-0.01800432801246643
1712257445754501000,1.539501220703125,0.1902012825012207,0.03976774215698242,0.0028771162033081055
1712257445764507100,1.549507080078125,0.14025068283081055,0.005354404449462891,0.01595216989517212
1712257445774513200,1.55951318359375,0.14306354522705078,-0.04274797439575195,-0.004404902458190918
1712257445784519200,1.569519287109375,0.15576887130737305,-0.05298042297363281,0.01324954628944397
1712257445794525200,1.579525146484375,0.11709213256835938,-0.021358966827392578,0.0017674267292022705
1712257445804531200,1.58953125,0.01832103729248047,0.037528038024902344,-0.06316271424293518
1712257445814537200,1.599537109375,-0.06943321228027344,0.02969074249267578,-0.09185793995857239
1712257445824543200,1.609543212890625,-0.09005308151245117,0.01296234130859375,-0.009327620267868042
1712257445834549200,1.61954931640625,-0.10583353042602539,0.010934829711914062,0.06611251831054688
1712257445844555000,1.629554931640625,-0.10287857055664062,0.037644386291503906,0.04550960659980774
1712257445854561000,1.63956103515625,-0.1568136215209961,0.07834100723266602,-0.057571232318878174
1712257445864567000,1.649567138671875,-0.07426738739013672,0.12410926818847656,-0.1381344348192215
1712257445874573000,1.659572998046875,0.09608221054077148,0.06587743759155273,-0.17538025975227356
1712257445884579000,1.6695791015625,0.1705765724182129,-0.0067996978759765625,-0.1426384150981903
1712257445894585000,1.679585205078125,0.06644630432128906,0.018842220306396484,-0.10162857174873352
1712257445904591000,1.689591064453125,-0.07778692245483398,0.057585716247558594,-0.17968925833702087
1712257445914597000,1.69959716796875,-0.1490488052368164,0.05814361572265625,-0.20123514533042908
1712257445924603100,1.70960302734375,-0.17274093627929688,0.03134346008300781,-0.11136327683925629
1712257445934609000,1.71960888671875,-0.06029796600341797,0.04831123352050781,0.009912490844726562
1712257445944615000,1.729614990234375,0.0966644287109375,0.056340694427490234,0.1019306480884552
1712257445954621000,1.739620849609375,0.190093994140625,-0.016153335571289062,0.14072519540786743
1712257445964627000,1.749626953125,0.1178436279296875,-0.0694422721862793,0.15651941299438477
1712257445974633000,1.759633056640625,-0.028482437133789062,-0.008960723876953125,0.032103002071380615
1712257445984639000,1.769638916015625,-0.1306467056274414,0.06069231033325195,-0.09972147643566132
1712257445994645000,1.77964501953125,-0.12413883209228516,0.07895326614379883,-0.13100366294384003
1712257446004651000,1.789651123046875,0.013029098510742188,0.10286855697631836,-0.10548457503318787
1712257446014657000,1.799656982421875,0.20902490615844727,0.05112886428833008,-0.018388599157333374
1712257446024663000,1.8096630859375,0.31293487548828125,-0.000530242919921875,0.03514367341995239
1712257446034668800,1.819668701171875,0.28444528579711914,0.0038275718688964844,0.035680562257766724
1712257446044674800,1.8296748046875,0.14936161041259766,0.030227184295654297,0.036278724670410156
1712257446054680800,1.839680908203125,0.04995536804199219,0.06974267959594727,0.01401934027671814
1712257446064686800,1.849686767578125,-0.05258798599243164,0.0662846565246582,-0.05871163308620453
1712257446074692900,1.85969287109375,-0.1445293426513672,0.08705377578735352,-0.12120306491851807
1712257446084699000,1.869698974609375,-0.15540599822998047,0.12223386764526367,-0.15523827075958252
1712257446094705000,1.879704833984375,-0.14819049835205078,0.10143470764160156,-0.18031734228134155
1712257446104711000,1.8897109375,-0.03843545913696289,0.08210420608520508,-0.1920625865459442
1712257446114717000,1.899717041015625,0.1351466178894043,0.0634450912475586,-0.09641526639461517
1712257446124723000,1.909722900390625,0.2832341194152832,0.006359577178955078,0.02065098285675049
1712257446134728700,1.919728759765625,0.3316478729248047,-0.05642366409301758,0.08879980444908142
1712257446144734700,1.929734619140625,0.24449634552001953,-0.05434989929199219,0.1190808117389679
1712257446154741200,1.9397412109375,0.05162763595581055,-0.04422950744628906,0.07905527949333191
1712257446164747000,1.9497470703125,-0.1802821159362793,-0.01561117172241211,-0.006583601236343384
1712257446174753000,1.9597529296875,-0.3859219551086426,0.046816349029541016,-0.08147822320461273
1712257446184759000,1.969759033203125,-0.4726109504699707,0.10135602951049805,-0.08553050458431244
1712257446194765000,1.97976513671875,-0.3244137763977051,0.12436103820800781,-0.06236344575881958
1712257446204771000,1.98977099609375,-0.08067846298217773,0.08676576614379883,0.05005437135696411
1712257446214777000,1.999777099609375,0.1076207160949707,0.01634502410888672,0.10431545972824097
1712257446224783000,2.009783203125,0.2283153533935547,0.0018749237060546875,0.0836840569972992
1712257446234789000,2.0197890625,0.2168898582458496,0.004464149475097656,0.007468611001968384
1712257446244795100,2.029795166015625,0.05584001541137695,0.0013866424560546875,-0.003353804349899292
1712257446254801200,2.03980126953125,-0.055420875549316406,0.0077953338623046875,0.03692561388015747
1712257446264807000,2.049806884765625,-0.09958887100219727,0.02430248260498047,0.05765259265899658
1712257446274813000,2.05981298828125,-0.04506492614746094,0.04635000228881836,-0.017166197299957275
1712257446284819000,2.06981884765625,0.04574871063232422,0.03093242645263672,-0.03963126242160797
1712257446294825000,2.079824951171875,0.10714960098266602,0.04364776611328125,-0.04347015917301178
1712257446304831000,2.0898310546875,0.13979053497314453,0.09321308135986328,-0.018555670976638794
1712257446314837000,2.0998369140625,0.15354299545288086,0.05657958984375,0.09202936291694641
1712257446324843000,2.109843017578125,0.17672014236450195,-0.012722969055175781,0.1265699565410614
1712257446334849000,2.11984912109375,0.17152833938598633,-0.038800716400146484,0.033412039279937744
1712257446344855000,2.12985498046875,0.14812231063842773,-0.06496286392211914,-0.07426390051841736
1712257446354860800,2.13986083984375,0.07861614227294922,-0.12424421310424805,-0.11130565404891968
1712257446364866800,2.14986669921875,0.005669116973876953,-0.07901334762573242,-0.06411264836788177
1712257446374872800,2.159872802734375,0.014166831970214844,-0.020564556121826172,-0.013939529657363892
1712257446384878800,2.16987890625,0.05134248733520508,-0.020222187042236328,0.025864511728286743
1712257446394884900,2.179884765625,0.06998252868652344,-0.006786823272705078,0.06964778900146484
1712257446404891000,2.189890869140625,-0.04774904251098633,0.03417491912841797,0.10262960195541382
1712257446414897000,2.19989697265625,-0.13584184646606445,0.0845327377319336,0.12592557072639465
1712257446424903000,2.20990283203125,-0.07701587677001953,0.05451631546020508,0.13177305459976196
1712257446434909000,2.219908935546875,-0.05271291732788086,-0.021485328674316406,0.10119834542274475
1712257446444915000,2.2299150390625,-0.005695819854736328,-0.020415782928466797,0.04327207803726196
1712257446454920700,2.239920654296875,0.017311573028564453,-0.029150962829589844,0.024327248334884644
1712257446464926700,2.2499267578125,-0.011034965515136719,-0.05757570266723633,0.05888569355010986
1712257446474932700,2.2599326171875,-0.17088603973388672,-0.05713796615600586,0.032078683376312256
1712257446484938800,2.269938720703125,-0.3055720329284668,0.005649566650390625,-0.021947115659713745
1712257446494944800,2.27994482421875,-0.32170581817626953,0.05481529235839844,-0.08386188745498657
1712257446504950800,2.28995068359375,-0.3295426368713379,0.0435028076171875,-0.15405821800231934
1712257446514956800,2.299956787109375,-0.27283573150634766,0.038877010345458984,-0.13534758985042572
1712257446524962800,2.309962890625,-0.1758723258972168,0.03093862533569336,-0.046370893716812134
1712257446534968800,2.31996875,-0.07161235809326172,0.02359294891357422,0.00522199273109436
1712257446544974800,2.329974853515625,-0.011705398559570312,-0.016448020935058594,0.06279096007347107
1712257446554980600,2.339980712890625,0.014345169067382812,-0.027828693389892578,0.09362846612930298
1712257446564986600,2.349986572265625,0.05890369415283203,0.031351566314697266,0.04630956053733826
1712257446574992600,2.35999267578125,0.12680387496948242,0.03241729736328125,-0.01390811800956726
1712257446584998700,2.36999853515625,0.12866687774658203,0.0229644775390625,-0.0410233736038208
1712257446595004700,2.380004638671875,0.0984182357788086,0.05982494354248047,-0.03566601872444153
1712257446605010700,2.3900107421875,0.04075050354003906,0.0770111083984375,-0.10355925559997559
1712257446615016700,2.4000166015625,-0.01590442657470703,0.05164289474487305,-0.12160806357860565
1712257446625022700,2.410022705078125,-0.057509422302246094,0.050341129302978516,-0.07013961672782898
1712257446635028700,2.42002880859375,-0.09877443313598633,0.04474830627441406,-0.014794737100601196
1712257446645034500,2.430034423828125,-0.10233736038208008,0.03994560241699219,-0.0020477771759033203
1712257446655040500,2.44004052734375,-0.06896114349365234,0.03599977493286133,-0.020532190799713135
1712257446665046500,2.450046630859375,-0.008727550506591797,0.05181264877319336,-0.03722068667411804
1712257446675052500,2.460052490234375,0.0689692497253418,0.06304693222045898,-0.024977058172225952
1712257446685058600,2.47005859375,0.15043163299560547,0.05958747863769531,-0.05082768201828003
1712257446695064600,2.480064697265625,0.20321083068847656,0.026926040649414062,-0.029716789722442627
1712257446705070600,2.490070556640625,0.2093062400817871,-0.011294841766357422,-0.009822428226470947
1712257446715076600,2.50007666015625,0.13658571243286133,-0.012679576873779297,-0.028476834297180176
1712257446725082600,2.51008251953125,0.009218215942382812,-0.028857707977294922,-0.005051732063293457
1712257446735088600,2.520088623046875,-0.08338308334350586,-0.04909944534301758,0.031774699687957764
1712257446745094400,2.530094482421875,-0.10924959182739258,-0.03991842269897461,0.044179439544677734
1712257446755100400,2.540100341796875,-0.11656427383422852,-0.039470672607421875,0.06986165046691895
1712257446765106400,2.5501064453125,-0.1102290153503418,-0.03364372253417969,0.06675392389297485
1712257446775112400,2.560112548828125,-0.10440492630004883,-0.008702278137207031,0.003933817148208618
1712257446785118500,2.570118408203125,-0.12284517288208008,0.021160125732421875,-0.12713313102722168
1712257446795124500,2.58012451171875,-0.10896158218383789,0.051568031311035156,-0.19447964429855347
1712257446805130500,2.590130615234375,-0.06768798828125,0.049243927001953125,-0.16226895153522491
1712257446815136500,2.600136474609375,0.01976156234741211,0.05192375183105469,-0.10714574158191681
1712257446825142500,2.610142578125,0.09659051895141602,0.0589752197265625,-0.04804268479347229
1712257446835148500,2.6201484375,0.19167423248291016,0.041581153869628906,0.061836808919906616
1712257446845154300,2.630154296875,0.18306875228881836,-0.005426883697509766,0.06120118498802185
1712257446855160300,2.640160400390625,0.14286375045776367,0.008152008056640625,0.014141887426376343
1712257446865166300,2.650166259765625,0.1137704849243164,0.01563739776611328,-0.008512675762176514
1712257446875172400,2.66017236328125,0.0530247688293457,-0.024990081787109375,-0.10189826786518097
1712257446885178400,2.670178466796875,-0.020323753356933594,-0.009007930755615234,-0.18906079232692719
1712257446895184400,2.680184326171875,-0.0880889892578125,-0.0211181640625,-0.16236571967601776
1712257446905190400,2.6901904296875,-0.08005380630493164,-0.06046724319458008,-0.1090061366558075
1712257446915196400,2.700196533203125,0.031172752380371094,-0.0611577033996582,-0.028997033834457397
1712257446925202400,2.710202392578125,0.08920478820800781,-0.0670175552368164,0.0866270363330841
1712257446935208200,2.720208251953125,0.10454559326171875,-0.06410026550292969,0.17690128087997437
1712257446945214200,2.730214111328125,0.0874338150024414,-0.03859996795654297,0.18670526146888733
1712257446955220200,2.74022021484375,-0.032332420349121094,-0.023695945739746094,0.12155875563621521
1712257446965226200,2.750226318359375,-0.14081954956054688,0.009903430938720703,0.0489746630191803
1712257446975232300,2.760232177734375,-0.17735958099365234,0.019923686981201172,0.029970824718475342
1712257446985238300,2.77023828125,-0.20491838455200195,0.02622509002685547,0.0021751821041107178
1712257446995244300,2.780244384765625,-0.18594646453857422,0.0523529052734375,-0.029133707284927368
1712257447005250300,2.790250244140625,-0.17764902114868164,0.06502056121826172,-0.08440670371055603
1712257447015256300,2.80025634765625,-0.18902349472045898,0.054804325103759766,-0.05571407079696655
1712257447025262300,2.810262451171875,-0.20574712753295898,0.045671939849853516,0.062178462743759155
1712257447035268000,2.82026806640625,-0.17131423950195312,0.05177783966064453,0.1368778645992279
1712257447045274000,2.830274169921875,-0.10994958877563477,0.06800603866577148,0.11661851406097412
1712257447055280000,2.840280029296875,-0.049729347229003906,0.07938575744628906,0.0826767086982727
1712257447065286100,2.8502861328125,-0.1509723663330078,0.10512971878051758,0.06312394142150879
1712257447075292200,2.860292236328125,-0.19070911407470703,0.09430408477783203,0.020874202251434326
1712257447085298200,2.870298095703125,-0.10920143127441406,0.09971761703491211,0.08531993627548218
1712257447095304200,2.88030419921875,0.05430269241333008,0.04058265686035156,-0.004473477602005005
1712257447105310200,2.890310302734375,0.2948765754699707,0.029897689819335938,-0.21181228756904602
1712257447115316200,2.900316162109375,0.5234718322753906,0.017953872680664062,-0.2493588775396347
1712257447125322200,2.910322265625,0.6660728454589844,0.01287078857421875,-0.2133442759513855
1712257447135328000,2.920327880859375,0.8047857284545898,0.03726673126220703,-0.10806551575660706
1712257447145334000,2.930333984375,1.0155797004699707,0.014646530151367188,-0.042755961418151855
1712257447155340000,2.940340087890625,1.1714396476745605,-0.02267599105834961,-0.04166993498802185
1712257447165346000,2.950345947265625,1.2320799827575684,-0.014564990997314453,-0.05184635519981384
1712257447175352000,2.96035205078125,1.369131088256836,0.02826833724975586,-0.12504634261131287
1712257447185358000,2.970358154296875,1.5731582641601562,0.033476829528808594,-0.1502331644296646
1712257447195364000,2.980364013671875,1.4860076904296875,-0.06963253021240234,-0.13815675675868988
1712257447205370000,2.9903701171875,0.9462671279907227,-0.16446924209594727,-0.06365010142326355
1712257447215376100,3.000376220703125,0.19833850860595703,-0.15353155136108398,0.008804082870483398
1712257447225382000,3.0103818359375,-0.3193483352661133,-0.16700410842895508,0.13520890474319458
1712257447235388000,3.020387939453125,-0.5244636535644531,-0.34201812744140625,0.4157814085483551
1712257447245394000,3.030393798828125,-0.5689573287963867,-0.3832821846008301,0.6788921356201172
1712257447255400000,3.04039990234375,-0.1913595199584961,-0.30863237380981445,0.7048190236091614
1712257447265406000,3.050406005859375,-0.24580717086791992,-0.7890710830688477,0.8550570011138916
1712257447275412000,3.060411865234375,-0.6032428741455078,-0.8906288146972656,0.7360305786132812
1712257447285418000,3.07041796875,-0.2397136688232422,-0.22702980041503906,0.590320348739624
1712257447295424000,3.080424072265625,0.0005350112915039062,0.1635589599609375,-0.12800079584121704
1712257447305430000,3.090429931640625,-0.258084774017334,0.08729219436645508,-0.28845658898353577
1712257447315436000,3.10043603515625,-0.5377745628356934,-0.10852766036987305,-0.11146765947341919
1712257447325441800,3.11044189453125,-0.510777473449707,0.017625808715820312,-0.31699302792549133
1712257447335447800,3.12044775390625,-0.5399069786071777,0.23379802703857422,-0.7520769834518433
1712257447345453800,3.130453857421875,-0.6171603202819824,0.5309762954711914,-0.8229717016220093
1712257447355459800,3.1404599609375,-0.6172981262207031,0.6497573852539062,-0.6926575899124146
1712257447365465900,3.1504658203125,-0.39978981018066406,0.6312217712402344,-0.4715002775192261
1712257447375471900,3.160471923828125,0.043488502502441406,0.586585521697998,-0.3231133222579956
1712257447385478000,3.170477783203125,0.6837148666381836,0.3824954032897949,-0.32047906517982483
1712257447395484000,3.18048388671875,1.5836219787597656,0.4009261131286621,-0.21015805006027222
1712257447405490000,3.190489990234375,2.4631285667419434,0.549436092376709,-0.5798609256744385
1712257447415496000,3.200495849609375,3.071190357208252,0.5553617477416992,-0.9758744239807129
1712257447425501700,3.210501708984375,3.3128867149353027,0.3831143379211426,-1.0395766496658325
1712257447435507700,3.2205078125,3.0182251930236816,0.039041996002197266,-0.7758743762969971
1712257447445513700,3.230513671875,2.4722867012023926,-0.3195500373840332,-0.06632909178733826
1712257447455519700,3.240519775390625,1.7771525382995605,-0.6737842559814453,0.37470513582229614
1712257447465525800,3.25052587890625,1.0238242149353027,-0.9183254241943359,0.5540286302566528
1712257447475531800,3.26053173828125,0.45378732681274414,-1.2670140266418457,0.8792369365692139
1712257447485537800,3.270537841796875,-0.3338322639465332,-1.4235186576843262,0.859107494354248
1712257447495543800,3.280543701171875,-0.6602783203125,-0.9041600227355957,0.10159054398536682
1712257447505549800,3.2905498046875,-0.3823709487915039,-0.9232974052429199,0.3199145793914795
1712257447515555800,3.300555908203125,-0.26395225524902344,-1.2613048553466797,0.7988322377204895
1712257447525561600,3.3105615234375,-0.42410755157470703,-0.9536890983581543,0.5736315846443176
1712257447535567600,3.320567626953125,-0.8946623802185059,-0.7240743637084961,-0.030836045742034912
1712257447545573600,3.33057373046875,-1.3768563270568848,-0.6853370666503906,-0.5541890263557434
1712257447555579600,3.34057958984375,-1.395660400390625,-0.6876974105834961,-0.9375015497207642
1712257447565585700,3.350585693359375,-1.8279500007629395,-0.4824066162109375,-0.996790885925293
1712257447575591700,3.360591796875,-1.8919655084609985,-0.279388427734375,-0.5713451504707336
1712257447585597700,3.37059765625,-2.1930203437805176,-0.028751373291015625,-0.01960831880569458
1712257447595603700,3.380603759765625,-1.8358625173568726,0.024056434631347656,0.38059014081954956
1712257447605609700,3.390609619140625,-1.643563985824585,0.12217044830322266,0.11702799797058105
1712257447615615500,3.400615478515625,-1.7506167888641357,0.17470741271972656,-0.33763110637664795
1712257447625621500,3.41062158203125,-1.350262999534607,0.1658477783203125,-0.4699127674102783
1712257447635627500,3.42062744140625,-1.512083649635315,-0.1885814666748047,0.048509180545806885
1712257447645633500,3.430633544921875,-1.5585432052612305,-0.3908348083496094,0.32688993215560913
1712257447655639600,3.4406396484375,-1.0505108833312988,-0.1548624038696289,0.17056524753570557
1712257447665645600,3.4506455078125,-0.46851158142089844,0.030014991760253906,0.18541085720062256
1712257447675651600,3.460651611328125,0.35502052307128906,0.12378978729248047,-0.027218997478485107
1712257447685657600,3.47065771484375,0.9969418048858643,0.09592056274414062,-0.03267186880111694
1712257447695663600,3.48066357421875,1.3004910945892334,0.07430076599121094,-0.15638476610183716
1712257447705669600,3.490669677734375,1.4488799571990967,0.14501476287841797,-0.34284594655036926
1712257447715675400,3.50067529296875,1.3463191986083984,0.12691974639892578,-0.09121745824813843
1712257447725681400,3.510681396484375,0.8518846035003662,-0.1029500961303711,0.23292100429534912
1712257447735687400,3.5206875,0.19055581092834473,-0.2753915786743164,0.7204906940460205
1712257447745693400,3.530693359375,-0.42841601371765137,-0.32708263397216797,0.8387129306793213
1712257447755699500,3.540699462890625,-0.8226730823516846,-0.25255870819091797,0.5812190175056458
1712257447765705500,3.55070556640625,-0.9373096227645874,-0.06114959716796875,0.1405019760131836
1712257447775711500,3.56071142578125,-0.6770601272583008,0.08928203582763672,-0.5020028352737427
1712257447785717500,3.570717529296875,-0.26881253719329834,0.18392086029052734,-0.9199883937835693
1712257447795723500,3.5807236328125,0.1000133752822876,0.14093017578125,-1.0009771585464478
1712257447805729500,3.5907294921875,0.3901960849761963,0.03144264221191406,-0.5576980113983154
1712257447815735300,3.6007353515625,0.40772855281829834,-0.12584495544433594,0.03139936923980713
1712257447825741300,3.6107412109375,0.367401123046875,-0.22104263305664062,0.24513429403305054
1712257447835747300,3.620747314453125,0.44533228874206543,-0.22072505950927734,0.3478403091430664
1712257447845753300,3.63075341796875,0.48390042781829834,-0.2492513656616211,0.42554938793182373
1712257447855759400,3.64075927734375,0.29233360290527344,-0.26830387115478516,0.34049761295318604
1712257447865765400,3.650765380859375,-0.15425610542297363,-0.31084728240966797,0.20601040124893188
1712257447875771400,3.660771484375,-0.6635948419570923,-0.35692882537841797,-0.017900586128234863
1712257447885777400,3.67077734375,-1.0192763805389404,-0.39165306091308594,-0.26185354590415955
1712257447895783400,3.680783447265625,-1.396081805229187,-0.2620058059692383,-0.32181352376937866
1712257447905789200,3.6907890625,-1.539077639579773,-0.0924386978149414,-0.4470070004463196
1712257447915795200,3.700795166015625,-1.2723824977874756,0.0069828033447265625,-0.547826886177063
1712257447925801200,3.71080126953125,-0.8618010878562927,0.026372909545898438,-0.5328323841094971
1712257447935807200,3.72080712890625,-0.42866531014442444,0.0751943588256836,-0.2424900233745575
1712257447945813200,3.730813232421875,-0.11787647008895874,0.04291534423828125,0.1542181372642517
1712257447955819300,3.7408193359375,0.09650593996047974,0.06308174133300781,0.20148468017578125
1712257447965825300,3.7508251953125,0.3741186857223511,0.006566047668457031,-0.01514822244644165
1712257447975831300,3.760831298828125,0.31978434324264526,-0.1502237319946289,0.0329289436340332
1712257447985837300,3.77083740234375,-0.11524629592895508,-0.2301034927368164,0.12469780445098877
1712257447995843300,3.78084326171875,-0.7380486726760864,-0.2711448669433594,0.1110491156578064
1712257448005849000,3.79084912109375,-1.1123945713043213,-0.24927043914794922,-0.023698270320892334
1712257448015855000,3.800855224609375,-1.2941575050354004,-0.18838787078857422,0.01596808433532715
1712257448025861000,3.810861083984375,-1.2807643413543701,-0.11249923706054688,-0.13303303718566895
1712257448035867100,3.8208671875,-0.8752936124801636,-0.03129005432128906,-0.29914042353630066
1712257448045873200,3.830873046875,-0.28443315625190735,-0.0024003982543945312,-0.17597877979278564
1712257448055879200,3.840879150390625,0.195673406124115,-0.03094482421875,-0.07190996408462524
1712257448065885200,3.85088525390625,0.3060719966888428,-0.07411003112792969,0.15838313102722168
1712257448075891200,3.86089111328125,0.080172598361969,-0.060309410095214844,0.27310067415237427
1712257448085897200,3.870897216796875,-0.17311912775039673,-0.008660316467285156,0.20556944608688354
1712257448095903200,3.8809033203125,-0.43214449286460876,-0.10054302215576172,0.1365116834640503
1712257448105909000,3.890908935546875,-0.665017306804657,-0.22556304931640625,0.026244521141052246
1712257448115915000,3.9009150390625,-0.8064147233963013,-0.25449657440185547,-0.11264747381210327
1712257448125921000,3.910921142578125,-0.4980504810810089,-0.1587982177734375,-0.3970966041088104
1712257448135927000,3.920927001953125,-0.0625850260257721,-0.09649944305419922,-0.23047173023223877
1712257448145933000,3.93093310546875,0.1867760717868805,-0.04866504669189453,-0.03201502561569214
1712257448155939000,3.94093896484375,0.13677918910980225,-0.039306640625,0.14276522397994995
1712257448165945000,3.950945068359375,0.0014962553977966309,-0.04441547393798828,0.09399449825286865
1712257448175950800,3.960950927734375,-0.00038760900497436523,0.031685829162597656,-0.021065115928649902
1712257448185956900,3.970956787109375,-0.0030364394187927246,-0.011796951293945312,0.05555492639541626
1712257448195963000,3.980962890625,-0.12570640444755554,-0.11252212524414062,0.0613442063331604
1712257448205969000,3.990968994140625,-0.30656298995018005,-0.1556987762451172,0.06351399421691895
1712257448215974700,4.000974609375,-0.39829835295677185,-0.11752128601074219,0.0043114423751831055
1712257448225980700,4.010980712890625,-0.3873003125190735,-0.09841251373291016,-0.1218523383140564
1712257448235986700,4.020986572265625,-0.32069408893585205,-0.09828853607177734,-0.22525450587272644
1712257448245992400,4.030992431640625,-0.159386545419693,-0.055039405822753906,-0.2345007061958313
1712257448255998500,4.04099853515625,-0.11791568994522095,-0.011873245239257812,-0.0052071213722229
1712257448266004500,4.05100439453125,-0.22092360258102417,-0.040477752685546875,-0.023688077926635742
1712257448276010200,4.06101025390625,-0.4210497736930847,-0.1119241714477539,-0.14206835627555847
1712257448286016300,4.071016357421875,-0.753314733505249,-0.1686687469482422,-0.10263383388519287
1712257448296022300,4.081022216796875,-1.1298023462295532,-0.21539306640625,-0.08661806583404541
1712257448306028300,4.0910283203125,-1.4770724773406982,-0.24240398406982422,0.002143383026123047
1712257448316034000,4.101033935546875,-1.711500883102417,-0.30689239501953125,0.07340759038925171
1712257448326040000,4.1110400390625,-1.8389086723327637,-0.37990283966064453,0.026806294918060303
1712257448336046000,4.121046142578125,-1.9459164142608643,-0.4802408218383789,-0.018682420253753662
1712257448346051800,4.1310517578125,-1.8601642847061157,-0.5454702377319336,-0.09246820211410522
1712257448356057900,4.141057861328125,-1.7912698984146118,-0.5944929122924805,-0.1909019649028778
1712257448366063900,4.15106396484375,-1.8297438621520996,-0.5983076095581055,-0.19590282440185547
1712257448376069600,4.161069580078125,-1.7949671745300293,-0.613856315612793,-0.1936672329902649
1712257448386075600,4.17107568359375,-1.5190012454986572,-0.4974966049194336,-0.10732078552246094
1712257448396081700,4.18108154296875,-1.182578682899475,-0.3879261016845703,0.20443865656852722
1712257448406087400,4.19108740234375,-0.8694471120834351,-0.4045543670654297,0.39986076951026917
1712257448416093400,4.201093505859375,-0.571882963180542,-0.3991127014160156,0.43728843331336975
1712257448426099500,4.211099365234375,-0.43038642406463623,-0.42913818359375,0.3019377291202545
1712257448436105500,4.22110546875,-0.4629027843475342,-0.4801034927368164,0.17851701378822327
1712257448446111500,4.231111572265625,-0.5833595991134644,-0.5851154327392578,0.12722620368003845
1712257448456117500,4.241117431640625,-0.9177266359329224,-0.6574249267578125,0.19469818472862244
1712257448466123300,4.251123291015625,-1.454942226409912,-0.6816387176513672,0.31025388836860657
1712257448476129300,4.26112939453125,-1.8348685503005981,-0.6803998947143555,0.3504025638103485
1712257448486135300,4.27113525390625,-1.921292781829834,-0.6047201156616211,0.17700454592704773
1712257448496141300,4.281141357421875,-1.7147632837295532,-0.46338939666748047,-0.23494240641593933
1712257448506147300,4.291147216796875,-1.107931137084961,-0.4666328430175781,-0.45301783084869385
1712257448516153300,4.3011533203125,-0.43543457984924316,-0.3333578109741211,-0.83259117603302
1712257448526159400,4.311159423828125,0.34257006645202637,-0.5483789443969727,-0.7821639776229858
1712257448536165400,4.321165283203125,0.7766101360321045,-0.49668025970458984,-0.490145742893219
1712257448546171400,4.33117138671875,1.045881748199463,-0.21823596954345703,-0.31043267250061035
1712257448556177200,4.34117724609375,1.268031120300293,-0.1309642791748047,-0.17909225821495056
1712257448566183200,4.35118310546875,0.8236408233642578,-0.35529232025146484,-0.15981851518154144
1712257448576189200,4.361189208984375,0.517143726348877,-0.43514060974121094,0.025222688913345337
1712257448586195200,4.3711953125,0.4005556106567383,-0.3997154235839844,0.004834339022636414
1712257448596201200,4.381201171875,-0.29222726821899414,-0.49744653701782227,-0.06670872122049332
1712257448606207200,4.391207275390625,-0.866600513458252,-0.4535384178161621,-0.05120875686407089
1712257448616213200,4.401213134765625,-1.3652515411376953,-0.45199060440063477,-0.03560531139373779
1712257448626219300,4.41121923828125,-1.4571585655212402,-0.49982404708862305,-0.021390646696090698
1712257448636225300,4.421225341796875,-1.2635927200317383,-0.5096645355224609,-0.0397304892539978
1712257448646231300,4.431231201171875,-0.8592743873596191,-0.4586482048034668,-0.029934100806713104
1712257448656237000,4.441237060546875,-0.45606374740600586,-0.41112661361694336,0.042306363582611084
1712257448666243000,4.4512431640625,-0.19053125381469727,-0.47818756103515625,0.17865149676799774
1712257448676249000,4.4612490234375,-0.02257061004638672,-0.5891079902648926,0.2581635117530823
1712257448686255000,4.471255126953125,0.07361078262329102,-0.6641197204589844,0.38422274589538574
1712257448696261000,4.48126123046875,0.0793609619140625,-0.5843911170959473,0.3427029848098755
1712257448706267100,4.49126708984375,0.30054330825805664,-0.594083309173584,0.14225202798843384
1712257448716273200,4.501273193359375,0.8449306488037109,-0.5436906814575195,0.05935017764568329
1712257448726279200,4.511279052734375,1.4038238525390625,-0.35546112060546875,-0.11728880554437637
1712257448736285200,4.52128515625,1.754033088684082,-0.18013811111450195,-0.34415197372436523
1712257448746291200,4.531291259765625,1.9108328819274902,-0.09091424942016602,-0.49156779050827026
1712257448756297000,4.541296875,1.7550048828125,-0.01207113265991211,-0.36183783411979675
1712257448766303000,4.551302978515625,1.4333372116088867,0.01949310302734375,-0.16476860642433167
1712257448776309000,4.56130908203125,1.0064187049865723,0.014895439147949219,-0.011813871562480927
1712257448786315000,4.57131494140625,0.5673694610595703,-0.032689571380615234,0.05744470655918121
1712257448796321000,4.581321044921875,0.19495296478271484,-0.08224201202392578,0.013125966303050518
1712257448806327000,4.5913271484375,-0.046207427978515625,-0.088287353515625,-0.12250214070081711
1712257448816333000,4.6013330078125,-0.047475337982177734,0.1078333854675293,-0.18130186200141907
1712257448826339000,4.611339111328125,0.2577528953552246,0.271151065826416,-0.1818026900291443
1712257448836345000,4.621344970703125,0.8891677856445312,0.2995643615722656,-0.21052251756191254
1712257448846350800,4.631350830078125,1.643326759338379,0.24664878845214844,-0.3256055414676666
1712257448856356900,4.64135693359375,2.274327278137207,0.2227940559387207,-0.40289509296417236
1712257448866363000,4.65136279296875,2.723590850830078,0.24638938903808594,-0.24705888330936432
1712257448876369000,4.661368896484375,2.763551712036133,0.2668447494506836,-0.0644841268658638
1712257448886375000,4.671375,2.575972557067871,0.2846336364746094,0.09885548055171967
1712257448896381000,4.681380859375,2.1891613006591797,0.3055291175842285,0.041697822511196136
1712257448906387000,4.691386962890625,1.4766969680786133,0.32404088973999023,-0.05791283771395683
1712257448916393000,4.70139306640625,0.7078952789306641,0.3412017822265625,-0.15028762817382812
1712257448926399000,4.71139892578125,0.05155372619628906,0.31914377212524414,-0.14612165093421936
1712257448936405000,4.721405029296875,-0.37624073028564453,0.2865171432495117,-0.0494559071958065
1712257448946410800,4.73141064453125,-0.3332939147949219,0.24457788467407227,0.06625162065029144
1712257448956416800,4.741416748046875,0.027833938598632812,0.2053823471069336,0.1411689817905426
1712257448966422800,4.7514228515625,0.35962581634521484,0.21846723556518555,0.1218835711479187
1712257448976428800,4.7614287109375,0.4822225570678711,0.214447021484375,0.021458402276039124
1712257448986434800,4.771434814453125,0.43965625762939453,0.24988555908203125,-0.13159619271755219
1712257448996440800,4.78144091796875,0.27953052520751953,0.24437665939331055,-0.23225829005241394
1712257449006446800,4.79144677734375,0.1685791015625,0.19440603256225586,-0.16179227828979492
1712257449016452900,4.801452880859375,-0.04672718048095703,0.10095071792602539,-0.006465479731559753
1712257449026459000,4.811458984375,-0.2284717559814453,0.05618619918823242,-0.028899922966957092
1712257449036465000,4.82146484375,-0.33434581756591797,-0.0059814453125,-0.04206603765487671
1712257449046470700,4.831470703125,-0.3409767150878906,-0.018114566802978516,-0.04220899939537048
1712257449056476700,4.8414765625,-0.1909465789794922,-0.004830360412597656,-0.013098523020744324
1712257449066482700,4.851482666015625,-0.07523155212402344,0.013910293579101562,-0.01552872359752655
1712257449076488700,4.86148876953125,0.025766372680664062,0.027932167053222656,-0.11675886809825897
1712257449086494700,4.87149462890625,0.10819244384765625,0.040724754333496094,-0.15050366520881653
1712257449096500700,4.881500732421875,0.0864877700805664,-0.010341644287109375,-0.10788069665431976
1712257449106506800,4.8915068359375,-0.01568889617919922,0.0093231201171875,-0.11714126169681549
1712257449116512800,4.9015126953125,-0.07457447052001953,0.08140230178833008,-0.11154918372631073
1712257449126518800,4.911518798828125,-0.06647682189941406,0.07697391510009766,-0.07771965861320496
1712257449136524800,4.92152490234375,-0.11057186126708984,0.05772066116333008,-0.07790277898311615
1712257449146530600,4.931530517578125,-0.1876668930053711,0.06666803359985352,-0.053557246923446655
1712257449156536600,4.94153662109375,-0.3608827590942383,0.12450551986694336,-0.018725663423538208
1712257449166542600,4.95154248046875,-0.579127311706543,0.16684436798095703,-0.03658103942871094
1712257449176548600,4.961548583984375,-0.5987825393676758,0.10784292221069336,-0.03473129868507385
1712257449186554600,4.9715546875,-0.5249147415161133,0.056719303131103516,0.08903244137763977
1712257449196560600,4.981560546875,-0.31426143646240234,0.05561685562133789,0.17293626070022583
1712257449206566700,4.991566650390625,-0.13839244842529297,0.08425569534301758,0.14004290103912354
1712257449216572700,5.00157275390625,0.032334327697753906,0.1509084701538086,-0.016351014375686646
1712257449226578700,5.01157861328125,0.1895923614501953,0.2490081787109375,-0.20760057866573334
1712257449236584400,5.02158447265625,0.31969451904296875,0.23425579071044922,-0.25708532333374023
1712257449246590500,5.031590576171875,0.40900230407714844,0.12497711181640625,-0.1492786854505539
1712257449256596500,5.041596435546875,0.4007740020751953,0.06389951705932617,-0.045833438634872437
1712257449266602500,5.0516025390625,0.17998695373535156,0.09006261825561523,0.05841150879859924
1712257449276608500,5.0616083984375,-0.18280506134033203,0.14845514297485352,0.033925533294677734
1712257449286614500,5.071614501953125,-0.45487403869628906,0.15079689025878906,-0.01400408148765564
1712257449296620500,5.08162060546875,-0.5176286697387695,0.11720895767211914,0.048684388399124146
1712257449306626600,5.09162646484375,-0.5196266174316406,0.08587026596069336,0.09842875599861145
1712257449316632600,5.101632568359375,-0.5323085784912109,0.10876846313476562,0.07797163724899292
1712257449326638600,5.111638671875,-0.5749540328979492,0.12401437759399414,-0.0416964590549469
1712257449336644400,5.121644287109375,-0.5328817367553711,0.08398151397705078,-0.2614908814430237
1712257449346650400,5.131650390625,-0.4106464385986328,0.09333992004394531,-0.3725946247577667
1712257449356656400,5.141656494140625,-0.24607086181640625,0.12723064422607422,-0.28035968542099
1712257449366662400,5.151662353515625,-0.05770301818847656,0.16540956497192383,-0.20868045091629028
1712257449376668400,5.16166845703125,0.15758323669433594,0.1709299087524414,-0.16936235129833221
1712257449386674400,5.17167431640625,0.2957315444946289,0.1596074104309082,-0.12274089455604553
1712257449396680400,5.181680419921875,0.33525562286376953,0.15413904190063477,-0.07905033230781555
1712257449406686500,5.1916865234375,0.1976156234741211,0.1358356475830078,0.02264389395713806
1712257449416692500,5.2016923828125,-0.07778739929199219,0.10679244995117188,0.058886826038360596
1712257449426698500,5.211698486328125,-0.26850223541259766,0.10657787322998047,0.04561901092529297
1712257449436704300,5.221704345703125,-0.3769111633300781,0.13137483596801758,0.06047850847244263
1712257449446710300,5.231710205078125,-0.3865060806274414,0.14446401596069336,0.08026283979415894
1712257449456716300,5.24171630859375,-0.24698448181152344,0.13164663314819336,0.11927530169487
1712257449466722300,5.251722412109375,-0.05871105194091797,0.11060905456542969,0.11207669973373413
1712257449476728300,5.261728271484375,0.060733795166015625,0.08002519607543945,0.05047634243965149
1712257449486734300,5.271734375,0.08440113067626953,0.10573959350585938,-0.05066695809364319
1712257449496740400,5.281740234375,0.07950782775878906,0.12142801284790039,-0.04581865668296814
1712257449506746400,5.291746337890625,0.060629844665527344,0.11782550811767578,0.045023590326309204
1712257449516752400,5.30175244140625,0.023512840270996094,0.09017658233642578,0.10317227244377136
1712257449526758100,5.311758056640625,-0.06936168670654297,0.06738138198852539,0.0959838330745697
1712257449536764200,5.32176416015625,-0.09526824951171875,0.0925297737121582,0.12038227915763855
1712257449546770200,5.331770263671875,-0.0839691162109375,0.14178752899169922,0.14385554194450378
1712257449556776200,5.341776123046875,-0.035892486572265625,0.11108636856079102,0.06980890035629272
1712257449566782200,5.3517822265625,0.025615692138671875,0.0948786735534668,-0.003026515245437622
1712257449576788200,5.361788330078125,-0.050192832946777344,0.08804845809936523,-0.0565812885761261
1712257449586794200,5.371794189453125,-0.12512779235839844,0.0772848129272461,-0.03949946165084839
1712257449596800300,5.38180029296875,-0.03908824920654297,0.10965776443481445,-0.07954666018486023
1712257449606806300,5.39180615234375,0.1212320327758789,0.12679481506347656,-0.07158440351486206
1712257449616812300,5.401812255859375,0.15744400024414062,0.1280074119567871,-0.08658206462860107
1712257449626818000,5.411818115234375,0.06204414367675781,0.11863231658935547,-0.1447427123785019
1712257449636824000,5.421823974609375,-0.0026702880859375,0.13192462921142578,-0.19077172875404358
1712257449646830000,5.431830078125,-0.05640125274658203,0.09266996383666992,-0.14448104798793793
1712257449656836000,5.441836181640625,-0.03838348388671875,0.1102752685546875,-0.07579967379570007
1712257449666842000,5.451842041015625,-0.029875755310058594,0.12256479263305664,0.001347959041595459
1712257449676848000,5.46184814453125,-0.06370830535888672,0.14383172988891602,-0.040797680616378784
1712257449686854100,5.471854248046875,-0.10170269012451172,0.11777496337890625,-0.11167502403259277
1712257449696860200,5.481860107421875,-0.11095523834228516,0.0688929557800293,-0.1352378875017166
1712257449706866200,5.4918662109375,-0.10602951049804688,0.03513336181640625,-0.09286341071128845
1712257449716872200,5.5018720703125,-0.07750415802001953,0.03942584991455078,-0.07499265670776367
1712257449726878000,5.5118779296875,-0.03506660461425781,0.08096837997436523,-0.10961222648620605
1712257449736884000,5.521884033203125,-0.03529167175292969,0.097686767578125,-0.06860694289207458
1712257449746890000,5.531889892578125,-0.14380455017089844,0.10469722747802734,-0.013925999402999878
1712257449756896000,5.54189599609375,-0.2369852066040039,0.10300827026367188,-0.015880495309829712
1712257449766902000,5.551902099609375,-0.16918373107910156,0.09279298782348633,0.049681156873703
1712257449776908000,5.561907958984375,-0.018057823181152344,0.050042152404785156,0.1262701153755188
1712257449786914000,5.5719140625,0.0979604721069336,0.03557443618774414,0.10012397170066833
1712257449796920000,5.581920166015625,0.09972763061523438,0.02033233642578125,0.041845232248306274
1712257449806926000,5.591926025390625,0.05526447296142578,0.06536293029785156,-0.011865049600601196
1712257449816931800,5.601931884765625,-0.05410480499267578,0.09995603561401367,-0.07103121280670166
1712257449826937900,5.611937744140625,-0.07238197326660156,0.10614347457885742,-0.07934597134590149
1712257449836944000,5.62194384765625,-0.048018455505371094,0.1076812744140625,-0.05120953917503357
1712257449846950000,5.631949951171875,-0.0897054672241211,0.0710763931274414,0.015137046575546265
1712257449856956000,5.641955810546875,-0.2343425750732422,0.04437541961669922,0.14016953110694885
1712257449866962000,5.6519619140625,-0.40552425384521484,0.014188766479492188,0.20084863901138306
1712257449876968000,5.661968017578125,-0.49510955810546875,0.005070209503173828,0.04608219861984253
1712257449886974000,5.671973876953125,-0.4764680862426758,0.031278133392333984,-0.0632854700088501
1712257449896980000,5.68197998046875,-0.4125938415527344,0.04517316818237305,-0.06325474381446838
1712257449906986000,5.691986083984375,-0.29430103302001953,0.04156637191772461,-0.03673312067985535
1712257449916991700,5.70199169921875,-0.06554698944091797,0.0719451904296875,-0.04136309027671814
1712257449926997800,5.711997802734375,0.07958030700683594,0.08268404006958008,0.02902001142501831
1712257449937003800,5.722003662109375,0.11968326568603516,0.03059530258178711,0.12253549695014954
1712257449947009800,5.732009765625,0.07546424865722656,0.02959918975830078,0.1487312912940979
1712257449957015800,5.742015869140625,-0.0428009033203125,0.04209280014038086,0.07800862193107605
1712257449967021800,5.752021728515625,-0.17316913604736328,0.030797481536865234,0.0078524649143219
1712257449977027800,5.76202783203125,-0.2073497772216797,0.07634687423706055,-0.012819409370422363
1712257449987033900,5.772033935546875,-0.2458972930908203,0.003593921661376953,0.01672828197479248
1712257449997039900,5.782039794921875,-0.2560310363769531,-0.0720672607421875,-0.004204124212265015
1712257450007046000,5.7920458984375,-0.29034423828125,-0.03227853775024414,-0.09132669866085052
1712257450017051600,5.8020517578125,-0.32042980194091797,0.036638736724853516,-0.17307120561599731
1712257450027057700,5.8120576171875,-0.22374725341796875,0.0679616928100586,-0.22025854885578156
1712257450037063700,5.822063720703125,-0.13367271423339844,0.08510398864746094,-0.20642706751823425
1712257450047069700,5.832069580078125,-0.0686788558959961,0.06911420822143555,-0.1468416452407837
1712257450057075700,5.84207568359375,-0.0236053466796875,0.06762170791625977,-0.11851957440376282
1712257450067081700,5.852081787109375,-0.02637958526611328,0.05213022232055664,-0.06891708076000214
1712257450077087700,5.862087646484375,0.046517372131347656,0.02244281768798828,0.029956132173538208
1712257450087093800,5.87209375,0.06669330596923828,0.0023212432861328125,0.06468746066093445
1712257450097099800,5.882099853515625,-0.0025415420532226562,0.04324150085449219,0.008446723222732544
1712257450107105500,5.89210546875,0.018790245056152344,0.08837270736694336,-0.11030963063240051
1712257450117111600,5.902111572265625,0.0965738296508789,0.052403926849365234,-0.1025276929140091
1712257450127117600,5.91211767578125,0.13605022430419922,0.03967094421386719,-0.0058293938636779785
1712257450137123600,5.92212353515625,0.17584800720214844,0.02100658416748047,0.09968754649162292
1712257450147129600,5.932129638671875,0.11698246002197266,0.020128250122070312,0.06439527869224548
1712257450157135600,5.942135498046875,0.08312034606933594,0.06559896469116211,-0.05842725932598114
1712257450167141600,5.9521416015625,0.06884002685546875,0.07711172103881836,0.00881814956665039
1712257450177147600,5.962147705078125,0.06441974639892578,0.08346223831176758,0.0038135945796966553
1712257450187153700,5.972153564453125,0.008576393127441406,0.070526123046875,-0.03532955050468445
1712257450197159700,5.98215966796875,-0.0036993026733398438,0.019878864288330078,0.032649606466293335
1712257450207165400,5.99216552734375,-0.020040512084960938,0.002433300018310547,0.052310019731521606
1712257450217171500,6.00217138671875,-0.09258460998535156,0.036984920501708984,-0.0026440024375915527
1712257450227177500,6.012177490234375,-0.13134765625,0.047931671142578125,-0.03706008195877075
1712257450237183500,6.02218359375,-0.1701221466064453,0.0454106330871582,-0.02217501401901245
1712257450247189500,6.032189453125,-0.22782421112060547,0.06268119812011719,-0.0854022204875946
1712257450257195500,6.042195556640625,-0.20557594299316406,0.07168197631835938,-0.11831079423427582
1712257450267201500,6.052201416015625,-0.10923290252685547,0.05826711654663086,-0.08072692155838013
1712257450277207600,6.06220751953125,0.013495445251464844,0.05020618438720703,-0.05873870849609375
1712257450287213600,6.072213623046875,0.1867361068725586,0.07886362075805664,-0.004082411527633667
1712257450297219600,6.082219482421875,0.2500934600830078,0.06751871109008789,0.05462399125099182
1712257450307225300,6.092225341796875,0.19619274139404297,0.04954338073730469,0.04592376947402954
1712257450317231400,6.1022314453125,0.045548439025878906,0.03958845138549805,0.008305907249450684
1712257450327237400,6.1122373046875,-0.14483070373535156,0.04385089874267578,-0.03965744376182556
1712257450337243400,6.122243408203125,-0.23386096954345703,0.05856943130493164,-0.03187069296836853
1712257450347249400,6.13224951171875,-0.1905374526977539,0.0556340217590332,0.012794524431228638
1712257450357255400,6.14225537109375,-0.143951416015625,0.05372476577758789,0.01984095573425293
1712257450367261400,6.152261474609375,-0.11286735534667969,0.02903461456298828,0.009704381227493286
1712257450377267500,6.162267333984375,-0.016750335693359375,0.023990631103515625,0.039137572050094604
1712257450387273500,6.1722734375,0.06346893310546875,0.037944793701171875,0.03266069293022156
1712257450397279200,6.182279296875,0.09563255310058594,0.02745819091796875,0.01423567533493042
1712257450407285200,6.19228515625,0.07155418395996094,0.0018415451049804688,0.015794456005096436
1712257450417291300,6.202291259765625,0.024921417236328125,0.02289581298828125,-0.04834049940109253
1712257450427297300,6.21229736328125,-0.034913063049316406,0.06229066848754883,-0.11698061227798462
1712257450437303300,6.22230322265625,-0.04673576354980469,0.030590057373046875,-0.10094881057739258
1712257450447309300,6.232309326171875,-0.043915748596191406,-0.015044212341308594,-0.049115151166915894
1712257450457315300,6.2423154296875,-0.12085533142089844,0.015067100524902344,0.00024390220642089844
1712257450467321300,6.2523212890625,-0.2911672592163086,0.059540748596191406,-0.008514434099197388
1712257450477327400,6.262327392578125,-0.29993724822998047,0.07224702835083008,-0.04049906134605408
1712257450487333400,6.27233349609375,-0.1590871810913086,0.04396867752075195,-0.004972875118255615
1712257450497339100,6.282339111328125,-0.058640480041503906,0.03541088104248047,-0.0012593865394592285
1712257450507345200,6.29234521484375,-0.016332626342773438,0.03154134750366211,-0.029033035039901733
1712257450517351200,6.30235107421875,0.04419517517089844,0.03219747543334961,0.011279642581939697
1712257450527357200,6.312357177734375,0.05664634704589844,0.06091737747192383,0.04363933205604553
1712257450537363200,6.32236328125,0.05011940002441406,0.09369468688964844,-0.017475157976150513
1712257450547369200,6.332369140625,0.05805683135986328,0.0738668441772461,-0.08302241563796997
1712257450557375200,6.342375244140625,0.03331756591796875,0.04453611373901367,-0.08859327435493469
1712257450567381200,6.35238134765625,0.0045566558837890625,0.03428077697753906,-0.030143558979034424
1712257450577387300,6.36238720703125,0.02855205535888672,0.05656766891479492,0.021362900733947754
1712257450587393300,6.372393310546875,0.000759124755859375,0.09680986404418945,0.03347790241241455
1712257450597399000,6.38239892578125,-0.0027170181274414062,0.07003307342529297,0.06417778134346008
1712257450607405000,6.392405029296875,0.013257980346679688,-0.004147529602050781,0.037647515535354614
1712257450617411000,6.4024111328125,-0.022223472595214844,-0.0025730133056640625,-0.05466163158416748
1712257450627417000,6.4124169921875,-0.13251304626464844,0.017848968505859375,-0.06937745213508606
1712257450637423000,6.422423095703125,-0.16601848602294922,0.005425453186035156,0.011687248945236206
1712257450647429000,6.43242919921875,-0.17153549194335938,0.013130664825439453,0.10163190960884094
1712257450657435100,6.44243505859375,-0.11171865463256836,0.012271881103515625,0.08121868968009949
1712257450667441200,6.452441162109375,-0.062438011169433594,0.025787830352783203,-0.015123963356018066
1712257450677447200,6.462447265625,-0.03281736373901367,-0.00800323486328125,0.007877349853515625
1712257450687453200,6.472453125,-0.03668403625488281,-0.02711772918701172,0.1019754409790039
1712257450697459000,6.482458984375,-0.06901359558105469,-0.007951736450195312,0.10631552338600159
1712257450707465000,6.49246484375,-0.07770967483520508,0.020864009857177734,-0.043815165758132935
1712257450717471000,6.502470947265625,-0.05366945266723633,0.04501056671142578,-0.15384908020496368
1712257450727477000,6.51247705078125,-0.011036872863769531,0.05449533462524414,-0.15027926862239838
1712257450737483000,6.52248291015625,0.04058551788330078,0.058811187744140625,-0.1480891853570938
1712257450747489000,6.532489013671875,0.05906391143798828,0.05745410919189453,-0.10894066095352173
1712257450757495000,6.5424951171875,-0.007069110870361328,0.02728128433227539,0.004306316375732422
1712257450767501000,6.5525009765625,-0.08129405975341797,0.03501272201538086,0.02089780569076538
1712257450777507000,6.562507080078125,-0.14051342010498047,0.033705711364746094,-0.01943439245223999
1712257450787512800,6.572512939453125,-0.09576082229614258,0.019132137298583984,0.025660693645477295
1712257450797518800,6.582518798828125,-0.04736471176147461,0.033542633056640625,0.05993175506591797
1712257450807524900,6.59252490234375,0.00962066650390625,0.05719757080078125,0.04132586717605591
1712257450817531000,6.60253076171875,0.032701969146728516,0.05692005157470703,0.02288573980331421
1712257450827537000,6.612536865234375,0.09288692474365234,0.009737491607666016,0.10939252376556396
1712257450837543000,6.62254296875,0.16202116012573242,-0.032804012298583984,0.12540912628173828
1712257450847549000,6.632548828125,0.16494083404541016,-0.024102210998535156,0.047968149185180664
1712257450857555000,6.642554931640625,0.06479644775390625,0.016590595245361328,-0.023068606853485107
1712257450867561000,6.65256103515625,-0.06684160232543945,0.05215644836425781,-0.007869154214859009
1712257450877567000,6.66256689453125,-0.1404433250427246,0.09746789932250977,-0.01655036211013794
1712257450887572700,6.67257275390625,-0.10059356689453125,0.07718372344970703,-0.010924428701400757
1712257450897578800,6.682578857421875,0.018379688262939453,0.057646751403808594,0.008017510175704956
1712257450907584800,6.692584716796875,0.07002496719360352,0.009426593780517578,0.01670125126838684
1712257450917590800,6.7025908203125,0.00843048095703125,0.008250236511230469,0.010817021131515503
1712257450927596800,6.7125966796875,-0.09934425354003906,0.04022550582885742,-0.05624142289161682
1712257450937602800,6.722602783203125,-0.07409191131591797,0.039562225341796875,-0.0470031201839447
1712257450947608800,6.73260888671875,0.02137279510498047,-0.00818014144897461,0.018561333417892456
1712257450957614800,6.74261474609375,0.04980182647705078,-0.027570724487304688,0.06002068519592285
1712257450967620900,6.752620849609375,-0.025528907775878906,0.0047149658203125,0.044588714838027954
1712257450977627000,6.762626953125,-0.09981489181518555,0.03677988052368164,0.0008193254470825195
1712257450987632600,6.772632568359375,-0.12615156173706055,0.059478759765625,-0.06197437644004822
1712257450997638700,6.782638671875,-0.1005392074584961,0.05868816375732422,-0.01123073697090149
1712257451007644700,6.792644775390625,-0.06134033203125,0.02040863037109375,0.047917693853378296
1712257451017650700,6.802650634765625,-0.04166460037231445,0.0157318115234375,0.08785417675971985
1712257451027656700,6.81265673828125,-0.022263050079345703,0.020378589630126953,0.06722739338874817
1712257451037662700,6.822662841796875,-0.09747648239135742,0.05327796936035156,-0.003703206777572632
1712257451047668700,6.832668701171875,-0.13438749313354492,0.04880475997924805,-0.07332223653793335
1712257451057674800,6.8426748046875,-0.06768131256103516,0.03112030029296875,-0.0809640884399414
1712257451067680800,6.8526806640625,0.007382392883300781,0.004233837127685547,0.010508418083190918
1712257451077686500,6.8626865234375,0.03464508056640625,0.0005650520324707031,0.05854901671409607
1712257451087692500,6.872692626953125,0.005448341369628906,0.019800186157226562,0.021207571029663086
1712257451097698600,6.882698486328125,0.04307365417480469,0.06165933609008789,-0.04812288284301758
1712257451107704600,6.89270458984375,0.03794145584106445,0.060132503509521484,-0.09314098954200745
1712257451117710600,6.902710693359375,0.07581949234008789,0.015602588653564453,-0.07760930061340332
1712257451127716600,6.912716552734375,0.03388404846191406,0.0036983489990234375,-0.02620956301689148
1712257451137722600,6.92272265625,-0.11062383651733398,0.010413646697998047,0.005188256502151489
1712257451147728600,6.932728759765625,-0.26289844512939453,0.0462803840637207,-0.001141577959060669
1712257451157734700,6.942734619140625,-0.25385284423828125,0.05507373809814453,0.0024167299270629883
1712257451167740700,6.95274072265625,-0.12810230255126953,0.022521018981933594,0.02479606866836548
1712257451177746400,6.962746337890625,-0.032955169677734375,0.014390945434570312,0.01403200626373291
1712257451187752400,6.97275244140625,0.01817798614501953,0.048853397369384766,0.01746693253517151
1712257451197758500,6.982758544921875,0.06361627578735352,0.09702062606811523,0.011859655380249023
1712257451207764500,6.992764404296875,0.16971063613891602,0.10637855529785156,0.016574740409851074
1712257451217770500,7.0027705078125,0.21830368041992188,0.06740570068359375,-0.011354148387908936
1712257451227776500,7.012776611328125,0.10207939147949219,0.03740882873535156,-0.020005732774734497
1712257451237782500,7.022782470703125,-0.01645040512084961,0.030865192413330078,-0.057455986738204956
1712257451247788500,7.03278857421875,-0.10494661331176758,0.0247650146484375,-0.06694939732551575
1712257451257794600,7.042794677734375,-0.09831476211547852,0.043061256408691406,-0.0438251793384552
1712257451267800600,7.052800537109375,-0.09698343276977539,0.06642007827758789,-0.03988245129585266
1712257451277806300,7.062806396484375,-0.04448509216308594,0.03834199905395508,-0.034859031438827515
1712257451287812400,7.072812255859375,0.058817386627197266,0.001384735107421875,-0.019318073987960815
1712257451297818400,7.082818359375,0.08088111877441406,0.001956462860107422,-0.08368760347366333
1712257451307824400,7.092824462890625,0.046559810638427734,0.015985965728759766,-0.10001957416534424
1712257451317830400,7.102830322265625,-0.015189170837402344,0.03417348861694336,-0.12119778990745544
1712257451327836400,7.11283642578125,-0.08063507080078125,0.04265880584716797,-0.10426303744316101
1712257451337842400,7.122842529296875,-0.06531667709350586,0.03269147872924805,-0.09245586395263672
1712257451347848400,7.132848388671875,-0.003376007080078125,0.02315807342529297,-0.005249887704849243
1712257451357854500,7.1428544921875,0.057784080505371094,-0.014801979064941406,0.04737544059753418
1712257451367860200,7.152860107421875,0.038590431213378906,-0.03421783447265625,-0.01465696096420288
1712257451377866200,7.1628662109375,-0.07871198654174805,-0.02092123031616211,-0.07163026928901672
1712257451387872300,7.172872314453125,-0.22744035720825195,0.006877422332763672,-0.05258232355117798
1712257451397878300,7.182878173828125,-0.276029109954834,-0.0017867088317871094,-0.03847700357437134
1712257451407884300,7.19288427734375,-0.20246410369873047,0.0006036758422851562,0.003516286611557007
1712257451417890300,7.202890380859375,-0.07427167892456055,0.013270378112792969,0.08238807320594788
1712257451427896300,7.212896240234375,0.05185079574584961,-0.007347583770751953,0.15557825565338135
1712257451437902300,7.22290234375,0.11980628967285156,-0.018919944763183594,0.23384186625480652
1712257451447908400,7.232908447265625,0.10699272155761719,-0.021611690521240234,0.2236054539680481
1712257451457914400,7.242914306640625,0.06181049346923828,-0.020252704620361328,0.1783601939678192
1712257451467920100,7.252920166015625,-0.006183147430419922,-0.019016265869140625,0.09803032875061035
1712257451477926100,7.262926025390625,-0.054555416107177734,0.010875225067138672,0.010480701923370361
1712257451487932200,7.27293212890625,-0.0034542083740234375,0.05466127395629883,-0.05149638652801514
1712257451497938200,7.282938232421875,0.08936309814453125,0.09277868270874023,-0.0985558032989502
1712257451507944200,7.292944091796875,0.16705703735351562,0.1531662940979004,-0.18880006670951843
1712257451517950200,7.3029501953125,0.20212030410766602,0.1360011100769043,-0.20083381235599518
1712257451527956200,7.312956298828125,0.2048969268798828,0.05642127990722656,-0.10341542959213257
1712257451537962200,7.322962158203125,0.11932849884033203,0.03795623779296875,-0.029299914836883545
1712257451547968300,7.33296826171875,-0.0019750595092773438,0.023926258087158203,0.037138402462005615
1712257451557974300,7.342974365234375,-0.13093996047973633,-0.03182411193847656,0.0829072892665863
1712257451567980000,7.35297998046875,-0.21636104583740234,-0.0617671012878418,0.1895236074924469
1712257451577986000,7.362986083984375,-0.25469160079956055,-0.02816915512084961,0.16440120339393616
1712257451587992000,7.372991943359375,-0.20432472229003906,-0.02161693572998047,0.11385360360145569
1712257451597998000,7.382998046875,-0.0426020622253418,-0.047215938568115234,0.1140725314617157
1712257451608004000,7.393004150390625,0.1022648811340332,-0.030110836029052734,0.07407346367835999
1712257451618010000,7.403010009765625,0.17040061950683594,0.05121040344238281,-0.054470449686050415
1712257451628016000,7.41301611328125,0.0927286148071289,0.04938077926635742,-0.1294706165790558
1712257451638022100,7.423022216796875,-0.048894405364990234,0.008990287780761719,-0.014899253845214844
1712257451648028200,7.433028076171875,-0.21188735961914062,0.06367254257202148,0.041790157556533813
1712257451658034200,7.4430341796875,-0.3261728286743164,0.04359006881713867,-0.010377377271652222
1712257451668040000,7.4530400390625,-0.3032360076904297,0.034909725189208984,-0.06566542387008667
1712257451678046000,7.4630458984375,-0.2203054428100586,0.03695964813232422,-0.08732423186302185
1712257451688052000,7.473052001953125,-0.13948488235473633,0.025847911834716797,-0.08964473009109497
1712257451698058000,7.48305810546875,-0.0178070068359375,0.015177726745605469,-0.07794538140296936
1712257451708064000,7.49306396484375,0.0832815170288086,0.004357814788818359,-0.0670851469039917
1712257451718070000,7.503070068359375,0.12219762802124023,-0.016613483428955078,-0.06707414984703064
1712257451728076000,7.513075927734375,0.11422443389892578,0.004065513610839844,-0.08735449612140656
1712257451738082000,7.52308203125,0.1401348114013672,0.04695558547973633,-0.0949169248342514
1712257451748088000,7.533088134765625,0.12888765335083008,0.054927825927734375,-0.051576167345047
1712257451758093800,7.54309375,0.07617807388305664,0.06646966934204102,-0.008897066116333008
1712257451768099800,7.553099853515625,-0.22064971923828125,0.04964113235473633,0.08722057938575745
1712257451778105900,7.56310595703125,-0.504971981048584,-0.02574300765991211,0.2179678976535797
1712257451788112000,7.57311181640625,-0.5143752098083496,-0.02056121826171875,0.10725069046020508
1712257451798118000,7.583117919921875,-0.2526059150695801,0.043976783752441406,-0.0404086709022522
1712257451808124000,7.5931240234375,0.056046485900878906,0.08467721939086914,-0.05862694978713989
1712257451818130000,7.6031298828125,0.3136606216430664,0.09951496124267578,-0.047983527183532715
1712257451828136000,7.613135986328125,0.38073015213012695,0.12060832977294922,-0.06986561417579651
1712257451838141700,7.6231416015625,0.2885313034057617,0.08218097686767578,-0.06812360882759094
1712257451848147700,7.633147705078125,0.18035602569580078,0.06618499755859375,-0.1103297621011734
1712257451858153700,7.64315380859375,-0.024325847625732422,0.030883312225341797,-0.08688318729400635
1712257451868159700,7.65315966796875,-0.21208524703979492,0.0017261505126953125,0.011664003133773804
1712257451878165500,7.66316552734375,-0.2661738395690918,-0.006268024444580078,-0.005276083946228027
1712257451888171500,7.673171630859375,-0.14135313034057617,-0.012769699096679688,-0.09432564675807953
1712257451898177500,7.683177490234375,0.14618396759033203,0.009195804595947266,-0.19809015095233917
1712257451908183300,7.693183349609375,0.37861061096191406,0.047751426696777344,-0.25651755928993225
1712257451918189300,7.703189208984375,0.48228931427001953,0.04501485824584961,-0.2323741763830185
1712257451928195300,7.7131953125,0.46915435791015625,0.04354047775268555,-0.23992647230625153
1712257451938201000,7.723201171875,0.3925333023071289,0.0533289909362793,-0.20344531536102295
1712257451948207000,7.73320703125,0.2905550003051758,0.03735208511352539,-0.08058874309062958
1712257451958213000,7.743213134765625,0.12054061889648438,-0.012478351593017578,0.04961198568344116
1712257451968219000,7.753218994140625,-0.09855318069458008,-0.04248619079589844,0.127404123544693
1712257451978225000,7.763224853515625,-0.310483455657959,-0.06099557876586914,0.12616786360740662
1712257451988231000,7.77323095703125,-0.4361000061035156,-0.024825096130371094,0.07605719566345215
1712257451998237000,7.78323681640625,-0.45832061767578125,0.0043277740478515625,0.043329983949661255
1712257452008242700,7.79324267578125,-0.40221548080444336,0.021614551544189453,0.036546677350997925
1712257452018248700,7.803248779296875,-0.3156881332397461,0.054798126220703125,0.04124504327774048
1712257452028254700,7.813254638671875,-0.1939864158630371,0.0510706901550293,-0.013542532920837402
1712257452038260500,7.823260498046875,-0.07930803298950195,0.03361177444458008,-0.047750502824783325
1712257452048266500,7.8332666015625,0.024391651153564453,0.011258125305175781,-0.02956610918045044
1712257452058272500,7.8432724609375,0.03740692138671875,0.01207590103149414,0.06442385911941528
1712257452068278300,7.8532783203125,-0.03431367874145508,-0.0016031265258789062,0.11971157789230347
1712257452078284300,7.8632841796875,-0.03913736343383789,0.004087924957275391,0.0750645101070404
1712257452088290300,7.873290283203125,0.017177581787109375,-0.008913516998291016,0.09197428822517395
1712257452098296000,7.883296142578125,0.05354118347167969,-0.016769886016845703,0.15603229403495789
1712257452108302000,7.893302001953125,0.0940861701965332,0.00833892822265625,0.15808811783790588
1712257452118308000,7.90330810546875,0.11525154113769531,0.05164480209350586,0.11358895897865295
1712257452128314000,7.913314208984375,0.11748313903808594,0.09856510162353516,0.04196193814277649
1712257452138320100,7.923320068359375,0.12022209167480469,0.09686422348022461,-0.04716116189956665
1712257452148326100,7.933326171875,0.06713104248046875,0.0847921371459961,-0.08299800753593445
1712257452158332200,7.943332275390625,-0.08354425430297852,0.07227754592895508,-0.06053927540779114
1712257452168338200,7.953338134765625,-0.21786785125732422,0.04140472412109375,-0.022574245929718018
1712257452178344000,7.963343994140625,-0.2707662582397461,0.0262603759765625,0.011318862438201904
1712257452188350000,7.973349853515625,-0.1919693946838379,0.055173397064208984,0.02075207233428955
1712257452198356000,7.98335595703125,-0.08694744110107422,0.0470423698425293,0.04691427946090698
1712257452208362000,7.993362060546875,0.06820964813232422,-0.0033178329467773438,0.11771297454833984
