time,seconds_elapsed,z,y,x
1712257621157621800,0.045621826171875,0,0,0
1712257621167622100,0.0556220703125,0.07206583023071289,0.012720108032226562,0.019389450550079346
1712257621177622500,0.06562255859375,0.3008303642272949,0.48881959915161133,0.03802764415740967
1712257621187624000,0.0756240234375,0.8709421157836914,0.114990234375,-0.5561672449111938
1712257621197625900,0.0856259765625,0.27462053298950195,-0.7916827201843262,0.573593020439148
1712257621207628800,0.09562890625,0.4529266357421875,-0.9109649658203125,0.508496880531311
1712257621217632800,0.1056328125,0.48369693756103516,0.2290325164794922,-0.37197253108024597
1712257621227637500,0.115637451171875,-0.7386813163757324,-0.0861363410949707,0.19862864911556244
1712257621237643300,0.125643310546875,-1.0138516426086426,-0.6742920875549316,0.2098938226699829
1712257621247650000,0.135650146484375,-0.9081954956054688,-0.7753596305847168,0.4090799391269684
1712257621257657900,0.145657958984375,-1.0310297012329102,-0.8861680030822754,0.7204590439796448
1712257621267666200,0.155666259765625,-1.010246753692627,-0.9427261352539062,0.924007773399353
1712257621277675000,0.165675048828125,-0.9969062805175781,-0.8693041801452637,0.893080472946167
1712257621287684400,0.175684326171875,-1.0702319145202637,-0.6240897178649902,0.5924331545829773
1712257621297694200,0.185694091796875,-1.1995482444763184,-0.11116218566894531,0.23847103118896484
1712257621307704000,0.1957041015625,-1.1706900596618652,0.22127580642700195,0.08684152364730835
1712257621317713200,0.205713134765625,-0.9357285499572754,0.22602176666259766,0.1409285068511963
1712257621327719000,0.215718994140625,-0.4011259078979492,0.17632579803466797,0.19934988021850586
1712257621337724700,0.225724609375,0.2268972396850586,0.16097164154052734,0.2092180848121643
1712257621347730200,0.235730224609375,0.5883150100708008,0.06911134719848633,0.2045668363571167
1712257621357736000,0.24573583984375,0.8190202713012695,-0.025896072387695312,0.06380391120910645
1712257621367741700,0.25574169921875,1.0455727577209473,-0.019910812377929688,-0.012556523084640503
1712257621377747500,0.26574755859375,1.0856356620788574,0.009535789489746094,-0.05148884654045105
1712257621387753000,0.2757529296875,0.9685564041137695,-0.0015778541564941406,-0.004477441310882568
1712257621397758700,0.2857587890625,0.8045129776000977,0.008987903594970703,0.00004979968070983887
1712257621407764500,0.295764404296875,0.6996378898620605,-0.018692493438720703,-0.019878029823303223
1712257621417770000,0.30577001953125,0.567589282989502,-0.045844078063964844,0.02761825919151306
1712257621427775700,0.315775634765625,0.38886165618896484,0.030666828155517578,0.007658094167709351
1712257621437781500,0.325781494140625,-0.07420158386230469,0.13192319869995117,0.027222365140914917
1712257621447787000,0.335787109375,-0.4466114044189453,0.14069795608520508,0.019591212272644043
1712257621457792800,0.345792724609375,-0.6130189895629883,0.08918190002441406,0.032937079668045044
1712257621467798500,0.355798583984375,-0.6221194267272949,0.0583195686340332,0.05068939924240112
1712257621477804000,0.365803955078125,-0.44012975692749023,0.008989334106445312,0.041815370321273804
1712257621487809800,0.375809814453125,-0.32160091400146484,0.023771286010742188,0.031220942735671997
1712257621497815600,0.385815673828125,-0.32015132904052734,0.08219337463378906,-0.005935758352279663
1712257621507821000,0.395821044921875,-0.21382904052734375,0.10879802703857422,0.037869811058044434
1712257621517826800,0.405826904296875,0.09404563903808594,0.056218624114990234,0.08231726288795471
1712257621527832600,0.41583251953125,0.3627438545227051,0.04564857482910156,0.01551869511604309
1712257621537838000,0.425838134765625,0.5764741897583008,0.06975078582763672,-0.034492164850234985
1712257621547843800,0.43584375,0.663790225982666,0.06056833267211914,-0.03563162684440613
1712257621557849600,0.445849609375,0.5296893119812012,0.08910369873046875,-0.06460210680961609
1712257621567855000,0.455855224609375,0.4358053207397461,0.1320796012878418,-0.06423202157020569
1712257621577860900,0.46586083984375,0.40161657333374023,0.15962886810302734,0.03555035591125488
1712257621587866600,0.47586669921875,-0.26352453231811523,-0.19300079345703125,0.04136765003204346
1712257621597872000,0.4858720703125,-0.7058782577514648,-0.045185089111328125,0.2072271704673767
1712257621607878000,0.4958779296875,-0.34697771072387695,0.12222146987915039,-0.02607482671737671
1712257621617883600,0.505883544921875,-0.10587739944458008,0.039920806884765625,-0.008252561092376709
1712257621627889200,0.51588916015625,0.12533330917358398,0.07201862335205078,-0.02818065881729126
1712257621637895000,0.52589501953125,0.30052709579467773,0.13618183135986328,-0.12404686212539673
1712257621647900700,0.535900634765625,0.3369407653808594,0.14673280715942383,-0.0862148106098175
1712257621657906200,0.54590625,0.11121654510498047,0.09905767440795898,0.025119125843048096
1712257621667912000,0.555911865234375,-0.2275075912475586,-0.004476070404052734,0.060237884521484375
1712257621677917700,0.565917724609375,-0.445065975189209,-0.0613865852355957,-0.0026322007179260254
1712257621687923200,0.575923095703125,-0.2011280059814453,-0.49472522735595703,0.11479583382606506
1712257621697929000,0.585928955078125,0.1282820701599121,-0.2908353805541992,-0.16716927289962769
1712257621707934700,0.595934814453125,-0.04840517044067383,0.2494807243347168,-0.2131839245557785
1712257621717940500,0.6059404296875,0.2327871322631836,0.26965856552124023,-0.6270549297332764
1712257621727946200,0.6159462890625,0.11229562759399414,0.1741166114807129,-0.26577994227409363
1712257621737952000,0.625951904296875,0.03811502456665039,0.1118016242980957,-0.21713316440582275
1712257621747957800,0.635957763671875,0.14470434188842773,0.08835506439208984,-0.16195106506347656
1712257621757963500,0.645963623046875,0.19388628005981445,0.08868885040283203,0.010663032531738281
1712257621767969300,0.65596923828125,-0.0863189697265625,0.050226688385009766,0.10634809732437134
1712257621777974800,0.665974853515625,-0.17866134643554688,0.08774280548095703,0.01966691017150879
1712257621787980500,0.67598046875,-0.15339899063110352,0.17797183990478516,-0.13588407635688782
1712257621797986300,0.685986328125,-0.08844137191772461,0.19823694229125977,-0.2617332339286804
1712257621807992000,0.695991943359375,0.04868507385253906,0.18282365798950195,-0.3959428369998932
1712257621817997800,0.705997802734375,0.07831430435180664,0.05643653869628906,-0.2693554759025574
1712257621828003600,0.716003662109375,-0.2149052619934082,-0.1363067626953125,0.007593035697937012
1712257621838009300,0.72600927734375,-0.38108396530151367,-0.23123407363891602,-0.11855369806289673
1712257621848015000,0.73601513671875,-0.585899829864502,-0.10469388961791992,0.08065640926361084
1712257621858020600,0.7460205078125,-0.4138002395629883,-0.10481977462768555,0.07384371757507324
1712257621868026400,0.7560263671875,-0.24230575561523438,-0.05109405517578125,0.08319616317749023
1712257621878032100,0.7660322265625,-0.34054994583129883,0.11766672134399414,-0.004590451717376709
1712257621888038000,0.776037841796875,-0.14879989624023438,0.17873334884643555,0.0004369020462036133
1712257621898043600,0.786043701171875,-0.30366086959838867,0.1350727081298828,-0.01811528205871582
1712257621908049400,0.79604931640625,-0.33303260803222656,0.07757759094238281,0.01928761601448059
1712257621918055200,0.80605517578125,-0.2458033561706543,0.07907295227050781,-0.042066365480422974
1712257621928061000,0.81606103515625,0.010413169860839844,0.07992315292358398,-0.2636474072933197
1712257621938066400,0.82606640625,0.412020206451416,0.14356422424316406,-0.35095587372779846
1712257621948072200,0.836072265625,0.7002997398376465,0.26132678985595703,-0.35982275009155273
1712257621958078000,0.846077880859375,0.7981629371643066,0.21429681777954102,-0.3651939630508423
1712257621968083700,0.856083740234375,0.7367415428161621,0.08535242080688477,-0.16021615266799927
1712257621978089500,0.86608935546875,0.5921249389648438,-0.06583070755004883,0.003502756357192993
1712257621988095200,0.87609521484375,0.2639789581298828,0.008800029754638672,0.3197251558303833
1712257621998101000,0.88610107421875,0.06433677673339844,0.16587066650390625,0.3616354167461395
1712257622008106800,0.896106689453125,0.1779041290283203,0.08069753646850586,0.5177022218704224
1712257622018112500,0.906112548828125,-0.1403050422668457,0.0923314094543457,0.17643976211547852
1712257622028118000,0.916117919921875,-0.17662858963012695,0.18471384048461914,0.2605243921279907
1712257622038123800,0.926123779296875,-0.05290031433105469,0.0786590576171875,0.20792600512504578
1712257622048129500,0.936129638671875,0.8353176116943359,-0.010851860046386719,-0.18368440866470337
1712257622058135300,0.94613525390625,0.8772454261779785,-0.0542140007019043,-0.22947072982788086
1712257622068141000,0.95614111328125,0.6033239364624023,-0.00331878662109375,-0.3480543792247772
1712257622078146800,0.966146728515625,0.4691805839538574,0.0008172988891601562,-0.3293900787830353
1712257622088152600,0.976152587890625,0.264279842376709,-0.07289886474609375,-0.15210503339767456
1712257622098158300,0.986158447265625,0.029996871948242188,-0.004160881042480469,-0.022147543728351593
1712257622108163800,0.996163818359375,-0.2317333221435547,0.21765470504760742,0.107049360871315
1712257622118169600,1.006169677734375,-0.3808426856994629,0.2997288703918457,0.505833625793457
1712257622128175400,1.01617529296875,-0.37677717208862305,0.39962196350097656,0.7432234287261963
1712257622138181000,1.02618115234375,-0.2862362861633301,0.4350395202636719,0.641743004322052
1712257622148187000,1.036186767578125,-0.18957090377807617,0.45772361755371094,0.45513635873794556
1712257622158192600,1.046192626953125,0.1263413429260254,0.31584787368774414,0.440469354391098
1712257622168198400,1.056198486328125,0.13831233978271484,0.3900442123413086,-0.14533065259456635
1712257622178204200,1.0662041015625,0.4322953224182129,-0.036075592041015625,0.05999554693698883
1712257622188209700,1.076209716796875,0.37899208068847656,-0.27320241928100586,-0.19798630475997925
1712257622198215400,1.08621533203125,0.15942668914794922,-0.23134946823120117,-0.49304038286209106
1712257622208221200,1.09622119140625,-0.21860933303833008,-0.2070174217224121,-0.5767300128936768
1712257622218227000,1.10622705078125,-0.6290483474731445,-0.13944578170776367,-0.600148618221283
1712257622228232700,1.116232666015625,-0.8112540245056152,-0.15742731094360352,-0.5902506709098816
1712257622238238500,1.126238525390625,-0.6484432220458984,-0.16354131698608398,-0.5005269646644592
1712257622248244200,1.136244140625,-0.5634040832519531,-0.09423065185546875,-0.36965054273605347
1712257622258250000,1.14625,-0.4041452407836914,-0.17186594009399414,-0.15129609405994415
1712257622268255700,1.156255859375,-0.46529722213745117,-0.2955141067504883,-0.09704209864139557
1712257622278261200,1.16626123046875,-0.7402844429016113,-0.23690271377563477,-0.07105913013219833
1712257622288267000,1.17626708984375,-0.9207282066345215,-0.1902613639831543,-0.1201319620013237
1712257622298272800,1.186272705078125,-0.8321089744567871,-0.18376684188842773,-0.4319196939468384
1712257622308278500,1.196278564453125,-0.6659622192382812,-0.2320399284362793,-0.7073025703430176
1712257622318284300,1.2062841796875,-0.46445655822753906,-0.36907052993774414,-0.8089116215705872
1712257622328290000,1.2162900390625,-0.34001684188842773,-0.391754150390625,-0.8696567416191101
1712257622338295800,1.2262958984375,-0.5579776763916016,-0.3436012268066406,-0.7788805365562439
1712257622348301600,1.236301513671875,-0.7806692123413086,-0.393679141998291,-0.2556980848312378
1712257622358307000,1.24630712890625,-0.6343479156494141,-0.6583466529846191,1.1917682886123657
1712257622368312800,1.256312744140625,0.05175018310546875,-0.3266010284423828,3.4904232025146484
1712257622378318600,1.266318603515625,0.07645797729492188,0.9903078079223633,0.06717703491449356
1712257622388324400,1.276324462890625,-0.10592365264892578,0.6321821212768555,-0.36852046847343445
1712257622398330000,1.286330078125,0.13581180572509766,0.0539250373840332,-0.012173697352409363
1712257622408336000,1.2963359375,0.5466995239257812,-0.17310714721679688,0.04655201733112335
1712257622418341400,1.30634130859375,0.4770021438598633,-0.0637660026550293,0.26171910762786865
1712257622428347100,1.31634716796875,0.36670637130737305,0.15692663192749023,0.3773282766342163
1712257622438353000,1.326352783203125,0.22947120666503906,0.2516160011291504,0.28328973054885864
1712257622448358700,1.336358642578125,-0.1931018829345703,0.02857494354248047,0.11079499125480652
1712257622458364200,1.3463642578125,-0.8139991760253906,-0.18106794357299805,-0.7947536706924438
1712257622468370000,1.356369873046875,-1.5087919235229492,-0.14397144317626953,-1.439959168434143
1712257622478375700,1.366375732421875,-1.8347339630126953,0.056864261627197266,-0.9579396843910217
1712257622488381200,1.376381103515625,-2.352689266204834,-0.6900725364685059,-1.4553031921386719
1712257622498387000,1.386386962890625,-2.6909284591674805,-1.5746760368347168,-2.405205249786377
1712257622508392700,1.396392822265625,-2.079650402069092,1.0592293739318848,-0.9310817122459412
1712257622518398200,1.406398193359375,-1.168126106262207,1.3218989372253418,0.8946157097816467
1712257622528404000,1.416404052734375,0.6770186424255371,-0.4176006317138672,2.6373584270477295
1712257622538409700,1.42640966796875,1.4482111930847168,0.1565089225769043,0.8121582865715027
1712257622548415200,1.436415283203125,0.9248256683349609,0.6801714897155762,-0.09182284772396088
1712257622558421000,1.4464208984375,1.1367716789245605,0.23574304580688477,0.6067367196083069
1712257622568426800,1.4564267578125,1.314396858215332,-0.20218610763549805,0.9175547361373901
1712257622578432300,1.466432373046875,0.38413429260253906,0.2218465805053711,0.13204622268676758
1712257622588438000,1.47643798828125,0.054103851318359375,0.2633523941040039,-0.12635961174964905
1712257622598443800,1.48644384765625,0.3493223190307617,0.01958942413330078,-0.32297050952911377
1712257622608449300,1.49644921875,0.33817005157470703,-0.1936640739440918,-0.5615362524986267
1712257622618455000,1.506455078125,0.3156008720397949,-0.24157381057739258,-0.7588103413581848
1712257622628460800,1.516460693359375,0.29889488220214844,-0.21384191513061523,-0.7046502828598022
1712257622638466300,1.52646630859375,0.32653236389160156,-0.2019181251525879,-0.4259434938430786
1712257622648472000,1.53647216796875,0.256075382232666,-0.15867853164672852,-0.13143694400787354
1712257622658477800,1.546477783203125,0.5615191459655762,0.027382373809814453,0.20888254046440125
1712257622668483300,1.5564833984375,0.7879314422607422,0.14165544509887695,0.34283873438835144
1712257622678489000,1.566489013671875,0.8486232757568359,0.1810288429260254,0.6178411841392517
1712257622688494800,1.576494873046875,0.5304269790649414,0.26021289825439453,0.7831571102142334
1712257622698500400,1.586500244140625,0.3711051940917969,0.3956923484802246,0.65428227186203
1712257622708506000,1.596506103515625,0.3119621276855469,0.37357568740844727,0.6971495151519775
1712257622718511900,1.606511962890625,0.12730121612548828,0.27733325958251953,0.4713841676712036
1712257622728517400,1.616517333984375,0.0679464340209961,0.1574397087097168,-0.1002386212348938
1712257622738523100,1.626523193359375,0.036762237548828125,0.01060628890991211,-0.41382265090942383
1712257622748529000,1.63652880859375,0.018910884857177734,-0.11501026153564453,-0.5110445022583008
1712257622758534400,1.646534423828125,-0.11915731430053711,-0.13358545303344727,-0.49479126930236816
1712257622768540200,1.6565400390625,-0.46416330337524414,-0.06271028518676758,-0.18612584471702576
1712257622778546000,1.6665458984375,-0.4928297996520996,0.0940241813659668,0.14221970736980438
1712257622788551700,1.6765517578125,-0.2475571632385254,0.15732622146606445,0.44052430987358093
1712257622798557200,1.68655712890625,0.03992652893066406,0.14793634414672852,0.46250343322753906
1712257622808563000,1.69656298828125,0.2814955711364746,0.1441969871520996,0.26789048314094543
1712257622818568700,1.706568603515625,0.3641228675842285,0.05451154708862305,0.004639968276023865
1712257622828574500,1.716574462890625,0.15420293807983398,-0.16196680068969727,-0.533043384552002
1712257622838580200,1.726580322265625,-0.04487037658691406,0.07017755508422852,-0.46417370438575745
1712257622848586000,1.7365859375,-0.07205581665039062,0.04944467544555664,0.07860767096281052
1712257622858591700,1.746591796875,-0.3280215263366699,-0.16577482223510742,0.16841180622577667
1712257622868597500,1.756597412109375,-0.5703506469726562,-0.04395771026611328,-0.17328977584838867
1712257622878603000,1.76660302734375,-0.5479516983032227,0.014373302459716797,-0.33899247646331787
1712257622888608800,1.77660888671875,-0.35584402084350586,-0.02097034454345703,-0.1504383385181427
1712257622898614500,1.786614501953125,-0.5458588600158691,-0.12730026245117188,-0.21056246757507324
1712257622908620300,1.796620361328125,-0.432098388671875,0.08361148834228516,-0.42849448323249817
1712257622918626000,1.8066259765625,-0.34410905838012695,0.21378707885742188,0.450865775346756
1712257622928631800,1.8166318359375,0.03533792495727539,0.3031883239746094,1.102695107460022
1712257622938637600,1.826637451171875,-0.012006759643554688,0.15430307388305664,0.9253278970718384
1712257622948643300,1.836643310546875,0.19100332260131836,0.30798912048339844,0.23076173663139343
1712257622958648800,1.84664892578125,0.46320009231567383,-0.1053934097290039,-0.09457150101661682
1712257622968654600,1.856654541015625,0.7200427055358887,-0.2701578140258789,-0.29700613021850586
1712257622978660400,1.866660400390625,0.9102187156677246,-0.23166799545288086,-0.5592517256736755
1712257622988666000,1.876666015625,0.9537334442138672,-0.19641637802124023,-0.6045864820480347
1712257622998672000,1.886671875,1.0085887908935547,-0.15964126586914062,-0.5571911334991455
1712257623008677600,1.896677734375,1.0135221481323242,-0.17914104461669922,-0.508180558681488
1712257623018683400,1.906683349609375,0.9403214454650879,-0.2592763900756836,-0.506783664226532
1712257623028689200,1.916689208984375,0.8131356239318848,-0.3041043281555176,-0.5590572357177734
1712257623038694700,1.926694580078125,0.6317505836486816,-0.3224630355834961,-0.5479235649108887
1712257623048700400,1.936700439453125,0.2134718894958496,-0.2786130905151367,-0.4416848123073578
1712257623058706200,1.9467060546875,-0.29639577865600586,-0.2020273208618164,-0.33661535382270813
1712257623068712000,1.9567119140625,-0.7958989143371582,-0.11300134658813477,-0.13992062211036682
1712257623078717700,1.9667177734375,-1.1645264625549316,-0.07967710494995117,0.039000749588012695
1712257623088723500,1.976723388671875,-1.2620329856872559,-0.11433982849121094,0.13900001347064972
1712257623098729200,1.986729248046875,-1.3774828910827637,-0.10097646713256836,0.24345430731773376
1712257623108735000,1.99673486328125,-1.413740634918213,0.04834175109863281,0.11628760397434235
1712257623118740700,2.00674072265625,-1.1762218475341797,0.21378421783447266,0.0510244220495224
1712257623128746200,2.016746337890625,-0.9350838661193848,0.28751420974731445,0.308517187833786
1712257623138752000,2.026751953125,-0.711723804473877,0.39617300033569336,0.46254846453666687
1712257623148757800,2.0367578125,-0.41689300537109375,0.4505805969238281,0.4909636080265045
1712257623158763500,2.046763427734375,0.09565973281860352,0.3570704460144043,0.2493998259305954
1712257623168769300,2.056769287109375,0.6572566032409668,0.2890748977661133,0.03483971953392029
1712257623178775000,2.066775146484375,1.057119369506836,0.0806889533996582,0.07383467257022858
1712257623188780800,2.07678076171875,0.981691837310791,-0.5301485061645508,0.39172589778900146
1712257623198786600,2.08678662109375,1.339242935180664,-0.3839712142944336,-0.18245679140090942
1712257623208792000,2.0967919921875,0.5625147819519043,-0.1343073844909668,-0.7469925880432129
1712257623218797800,2.1067978515625,-0.062470436096191406,-0.22874116897583008,-1.0578181743621826
1712257623228803600,2.116803466796875,-0.28804683685302734,-0.10421895980834961,-0.962830662727356
1712257623238809300,2.126809326171875,-0.24296998977661133,0.17900514602661133,-0.6735487580299377
1712257623248815000,2.136815185546875,-0.45244741439819336,0.3098335266113281,-0.07996940612792969
1712257623258820900,2.14682080078125,-0.7336850166320801,0.3643827438354492,0.606914758682251
1712257623268826600,2.15682666015625,-0.9876117706298828,0.4585237503051758,0.953311026096344
1712257623278832400,2.166832275390625,-1.1722230911254883,0.46412038803100586,0.8675002455711365
1712257623288838000,2.176837890625,-1.1782207489013672,0.3340120315551758,0.45823803544044495
1712257623298843600,2.18684375,-1.0769710540771484,0.1872701644897461,0.06552299857139587
1712257623308849400,2.196849365234375,-0.9446372985839844,0.0664825439453125,-0.19163331389427185
1712257623318855200,2.206855224609375,-0.7079620361328125,-0.030184268951416016,-0.22244447469711304
1712257623328861000,2.21686083984375,-0.5561380386352539,-0.11889314651489258,-0.1314305067062378
1712257623338866700,2.22686669921875,-0.45916318893432617,-0.1100306510925293,-0.18518660962581635
1712257623348872400,2.23687255859375,-0.38295698165893555,-0.04734516143798828,-0.1914764940738678
1712257623358878200,2.246878173828125,-0.21261167526245117,0.049506187438964844,-0.185013085603714
1712257623368884000,2.256884033203125,0.18692255020141602,0.15465974807739258,-0.1832970529794693
1712257623378889500,2.266889404296875,0.5891022682189941,0.12186241149902344,-0.14788387715816498
1712257623388895200,2.276895263671875,0.8962502479553223,0.049382686614990234,-0.0648590698838234
1712257623398901000,2.28690087890625,0.9427180290222168,0.05093955993652344,0.119378000497818
1712257623408906800,2.29690673828125,0.8196730613708496,0.04562234878540039,0.2446523904800415
1712257623418912500,2.30691259765625,0.5647220611572266,0.05374574661254883,0.26378846168518066
1712257623428918300,2.316918212890625,0.26163291931152344,0.06351232528686523,0.14387762546539307
1712257623438924000,2.326924072265625,0.008525371551513672,0.07229328155517578,-0.02766139805316925
1712257623448929800,2.3369296875,-0.19704961776733398,-0.013120651245117188,-0.1433282196521759
1712257623458935300,2.346935302734375,-0.3193221092224121,-0.056771278381347656,-0.20574647188186646
1712257623468941000,2.356941162109375,-0.30222225189208984,-0.01997232437133789,-0.1129060685634613
1712257623478946800,2.36694677734375,-0.2363142967224121,-0.041941165924072266,0.027181342244148254
1712257623488952600,2.37695263671875,-0.144622802734375,0.019721031188964844,0.02013426274061203
1712257623498958000,2.3869580078125,-0.044582366943359375,0.11536931991577148,0.03217014670372009
1712257623508963800,2.3969638671875,0.017900466918945312,0.19542503356933594,-0.05768738314509392
1712257623518969600,2.406969482421875,0.038992881774902344,0.21147441864013672,-0.23490598797798157
1712257623528975000,2.41697509765625,0.12374114990234375,0.14471769332885742,-0.4859662353992462
1712257623538980900,2.42698095703125,0.31481266021728516,0.0908823013305664,-0.7483187913894653
1712257623548986600,2.436986572265625,0.4937734603881836,-0.04660654067993164,-0.679695188999176
1712257623558992100,2.4469921875,0.5233793258666992,-0.12051868438720703,-0.3823806047439575
1712257623568998000,2.456997802734375,0.3714475631713867,-0.09349727630615234,-0.04178345948457718
1712257623579003600,2.467003662109375,0.027535438537597656,-0.021497249603271484,0.042413026094436646
1712257623589009200,2.477009033203125,-0.3678121566772461,0.09384536743164062,0.17149358987808228
1712257623599015000,2.487014892578125,-0.6015357971191406,0.19208383560180664,0.41280820965766907
1712257623609020700,2.497020751953125,-0.7435035705566406,0.2803654670715332,0.5203537940979004
1712257623619026200,2.507026123046875,-0.795170783996582,0.21169376373291016,0.895092785358429
1712257623629032000,2.517031982421875,-0.9060230255126953,0.17822647094726562,1.1667605638504028
1712257623639037700,2.52703759765625,-0.7154960632324219,0.10987472534179688,1.7912135124206543
1712257623649043200,2.537043212890625,0.053943634033203125,0.6151466369628906,1.2134727239608765
1712257623659049000,2.547049072265625,0.5297918319702148,0.6742687225341797,0.6730886697769165
1712257623669054700,2.5570546875,0.5997724533081055,0.42203521728515625,0.7038567662239075
1712257623679060500,2.567060546875,0.770967960357666,0.35572004318237305,0.1968420147895813
1712257623689066000,2.57706591796875,0.8390483856201172,0.22996807098388672,-0.24080057442188263
1712257623699071700,2.58707177734375,0.8044266700744629,0.11188888549804688,-0.4537876546382904
1712257623709077500,2.597077392578125,0.4794588088989258,-0.005919456481933594,-0.36912286281585693
1712257623719083000,2.6070830078125,0.0585474967956543,-0.030672073364257812,-0.2755884528160095
1712257623729088800,2.6170888671875,-0.29854869842529297,0.0733180046081543,-0.17028868198394775
1712257623739094500,2.627094482421875,-0.48942041397094727,-0.03079366683959961,0.2593492269515991
1712257623749100000,2.63710009765625,-0.6817641258239746,0.1398172378540039,0.19083207845687866
1712257623759105800,2.647105712890625,-0.8527450561523438,0.20833683013916016,-0.1346196085214615
1712257623769111600,2.657111572265625,-0.8270964622497559,0.037982940673828125,-0.34652242064476013
1712257623779117000,2.667116943359375,-0.6159496307373047,-0.2695178985595703,-0.42155104875564575
1712257623789122800,2.677122802734375,-0.08480501174926758,-0.4149637222290039,-0.5961863398551941
1712257623799128600,2.687128662109375,0.4252743721008301,-0.37869739532470703,-0.5764269232749939
1712257623809134000,2.697134033203125,0.6443190574645996,-0.2158203125,-0.31680169701576233
1712257623819139800,2.707139892578125,0.5897350311279297,-0.11494302749633789,0.022922247648239136
1712257623829145600,2.7171455078125,0.30033159255981445,-0.027647018432617188,0.15377652645111084
1712257623839151000,2.727151123046875,-0.297391414642334,0.07296514511108398,0.14186057448387146
1712257623849156900,2.737156982421875,-1.0690913200378418,0.09648799896240234,0.03210526704788208
1712257623859162600,2.74716259765625,-1.4369592666625977,0.21970462799072266,-0.15004734694957733
1712257623869168400,2.75716845703125,-1.4982380867004395,0.24713516235351562,-0.15489353239536285
1712257623879174100,2.767174072265625,-1.3202462196350098,0.3360476493835449,-0.32007870078086853
1712257623889180000,2.777179931640625,-1.0451641082763672,0.2698812484741211,-0.24701768159866333
1712257623899185400,2.787185302734375,-0.9141459465026855,0.14678668975830078,-0.05350196361541748
1712257623909191200,2.797191162109375,-0.7733325958251953,0.1810011863708496,-0.16681821644306183
1712257623919197000,2.807197021484375,-0.5246396064758301,0.0972738265991211,0.11295956373214722
1712257623929202700,2.81720263671875,-0.5357685089111328,0.12047481536865234,0.1457938551902771
1712257623939208400,2.82720849609375,-0.49628162384033203,0.21274805068969727,-0.043750107288360596
1712257623949214200,2.837214111328125,-0.3548464775085449,0.10786294937133789,-0.20873217284679413
1712257623959220000,2.847219970703125,0.24394845962524414,-0.043447017669677734,-0.45510581135749817
1712257623969225700,2.857225830078125,0.5160512924194336,-0.30325794219970703,-0.32225069403648376
1712257623979231200,2.867231201171875,0.43070411682128906,-1.1305460929870605,-0.7868112921714783
1712257623989237000,2.877237060546875,0.018380165100097656,-1.3587818145751953,-1.7114263772964478
1712257623999242800,2.88724267578125,0.06897926330566406,0.3248562812805176,-1.7392189502716064
1712257624009248500,2.89724853515625,0.08807611465454102,0.19782304763793945,-0.7087933421134949
1712257624019254300,2.907254150390625,-0.3023643493652344,-0.4057435989379883,0.2849928140640259
1712257624029260000,2.917260009765625,-0.6444759368896484,-0.026858806610107422,0.14715474843978882
1712257624039265800,2.927265869140625,-0.39699554443359375,0.33633899688720703,0.07481551170349121
1712257624049271600,2.937271484375,-0.025957107543945312,0.19322824478149414,0.3675561547279358
1712257624059277000,2.947277099609375,-0.1257166862487793,0.11476993560791016,0.5938995480537415
1712257624069282800,2.95728271484375,-0.35193777084350586,0.14451169967651367,0.5600063800811768
1712257624079288600,2.96728857421875,-0.27037668228149414,-0.4870285987854004,0.2083808183670044
1712257624089294300,2.97729443359375,0.25970888137817383,1.3769750595092773,-1.0314723253250122
1712257624099300000,2.987300048828125,1.5241332054138184,0.8621997833251953,0.15233689546585083
1712257624109305900,2.997305908203125,2.9043874740600586,-0.1073598861694336,1.9404133558273315
1712257624119311600,3.0073115234375,3.9908862113952637,-0.007701396942138672,1.7971632480621338
1712257624129317400,3.0173173828125,4.506659507751465,0.49820852279663086,1.2464333772659302
1712257624139323100,3.0273232421875,4.383188724517822,0.07160711288452148,1.0868909358978271
1712257624149328600,3.03732861328125,4.012819766998291,-0.2773561477661133,0.7198762893676758
1712257624159334400,3.04733447265625,3.56583309173584,-0.16009902954101562,0.11976546049118042
1712257624169340200,3.057340087890625,3.125730514526367,-0.35974979400634766,0.0007821321487426758
1712257624179346000,3.067345947265625,2.7028279304504395,-0.5399265289306641,0.12506264448165894
1712257624189351700,3.0773515625,2.375398635864258,-0.7062220573425293,-0.025736987590789795
1712257624199357400,3.087357421875,2.2237167358398438,-0.9798917770385742,-0.4071946144104004
1712257624209363200,3.09736328125,2.2197327613830566,-1.077103614807129,-1.0024785995483398
1712257624219369000,3.107368896484375,2.303101062774658,-1.313239574432373,-1.4147725105285645
1712257624229374500,3.11737451171875,1.844247817993164,-1.4245171546936035,-1.4852294921875
1712257624239380200,3.127380126953125,1.772028923034668,-1.4734444618225098,-1.297372817993164
1712257624249386000,3.137385986328125,1.7017779350280762,-1.5669546127319336,-0.8845750689506531
1712257624259391700,3.147391845703125,1.4205174446105957,-1.6091442108154297,-0.45720958709716797
1712257624269397500,3.1573974609375,0.8845577239990234,-1.444045066833496,-0.03920692950487137
1712257624279403300,3.1674033203125,0.7065901756286621,-1.4204955101013184,-0.2645654082298279
1712257624289409000,3.177408935546875,0.25562000274658203,-1.4665541648864746,-0.36302030086517334
1712257624299414800,3.187414794921875,-0.6008815765380859,-1.5038995742797852,-0.834182620048523
1712257624309420300,3.197420166015625,-1.5593597888946533,-1.5878610610961914,-1.5399446487426758
1712257624319426000,3.207426025390625,-2.1757185459136963,-1.8489289283752441,-1.719502568244934
1712257624329431800,3.217431884765625,-2.1501588821411133,-2.1392369270324707,-1.5925729274749756
1712257624339437600,3.2274375,-1.717203140258789,-2.1137757301330566,-1.0938817262649536
1712257624349443300,3.237443359375,-1.825412631034851,-1.777419090270996,0.06998640298843384
1712257624359449000,3.247448974609375,-2.091994285583496,-1.123769760131836,0.796716034412384
1712257624369454800,3.257454833984375,-2.193683624267578,-0.48419666290283203,1.2236418724060059
1712257624379460600,3.267460693359375,-2.1445980072021484,-0.1008138656616211,1.8335859775543213
1712257624389466400,3.27746630859375,-1.9674549102783203,0.43486595153808594,1.753640055656433
1712257624399471900,3.287471923828125,-1.7792617082595825,0.3418083190917969,1.1960194110870361
1712257624409477600,3.2974775390625,-1.616942286491394,0.23737812042236328,0.6993634104728699
1712257624419483400,3.3074833984375,-0.7753669023513794,0.0014286041259765625,0.28086549043655396
1712257624429489200,3.3174892578125,0.05587172508239746,-0.4003009796142578,-0.16386884450912476
1712257624439495000,3.327494873046875,0.27073097229003906,-0.7282485961914062,-0.7127770185470581
1712257624449500700,3.337500732421875,0.4024991989135742,-0.9957742691040039,-1.0521445274353027
1712257624459506400,3.34750634765625,0.06520402431488037,-1.1350507736206055,-0.8832347989082336
1712257624469512200,3.35751220703125,-0.5196268558502197,-1.0735769271850586,-0.7869904637336731
1712257624479517700,3.367517578125,-0.6744353175163269,-0.8687381744384766,-0.5241481065750122
1712257624489523500,3.3775234375,-0.7017630934715271,-0.5455598831176758,-0.1131441593170166
1712257624499529200,3.387529296875,-0.9052877426147461,-0.010211944580078125,0.36247944831848145
1712257624509535000,3.397534912109375,-1.133017659187317,0.3679780960083008,0.7269319295883179
1712257624519540700,3.407540771484375,-1.3637350797653198,0.6314296722412109,1.1268117427825928
1712257624529546500,3.41754638671875,-1.1699843406677246,0.8465976715087891,1.1859453916549683
1712257624539552300,3.42755224609375,-0.8301384449005127,0.7836952209472656,1.1206499338150024
1712257624549558000,3.43755810546875,-0.8066227436065674,0.6154756546020508,0.738650918006897
1712257624559563500,3.4475634765625,-0.8287436366081238,0.4763908386230469,0.7314523458480835
1712257624569569300,3.4575693359375,-0.8834852576255798,0.2995939254760742,0.4629756212234497
1712257624579575000,3.467574951171875,-1.072711706161499,0.209869384765625,0.1740783452987671
1712257624589580800,3.477580810546875,-1.3764050006866455,0.15966796875,0.058925628662109375
1712257624599586600,3.487586669921875,-1.324188232421875,0.12041378021240234,0.1110605001449585
1712257624609592300,3.49759228515625,-0.8760576248168945,0.1917257308959961,0.37493252754211426
1712257624619597800,3.507597900390625,-0.5973849296569824,0.30118751525878906,0.4546818733215332
1712257624629603600,3.517603515625,-0.19389155507087708,0.27665233612060547,0.4030747413635254
1712257624639609300,3.527609375,0.20022082328796387,0.2279529571533203,0.47897791862487793
1712257624649614800,3.53761474609375,0.37334388494491577,0.2124347686767578,0.18909204006195068
1712257624659620600,3.54762060546875,0.37528055906295776,0.12520790100097656,0.10027289390563965
1712257624669626400,3.55762646484375,0.14456325769424438,0.21007633209228516,0.020624518394470215
1712257624679632000,3.5676318359375,-0.2670523524284363,0.16123008728027344,-0.18953865766525269
1712257624689637600,3.5776376953125,-0.6758714914321899,0.0557098388671875,-0.37309908866882324
1712257624699643400,3.587643310546875,-0.7020965814590454,-0.015275001525878906,-0.785490095615387
1712257624709649000,3.59764892578125,-0.5809414982795715,-0.18062877655029297,-0.6348879933357239
1712257624719654700,3.607654541015625,-0.25458788871765137,-0.1347522735595703,-0.3555244207382202
1712257624729660400,3.617660400390625,-0.013474434614181519,-0.03615379333496094,0.10287582874298096
1712257624739666000,3.627666015625,0.10964322090148926,0.04306316375732422,0.4758457541465759
1712257624749671700,3.637671630859375,-0.03387419134378433,0.11706161499023438,0.7089916467666626
1712257624759677400,3.647677490234375,-0.26861685514450073,0.12388801574707031,0.39629942178726196
1712257624769683000,3.657682861328125,-0.6295375227928162,-0.026732444763183594,0.25769954919815063
1712257624779688700,3.667688720703125,-0.8271445035934448,-0.10981082916259766,-0.004915058612823486
1712257624789694500,3.677694580078125,-0.7371625900268555,-0.0776662826538086,-0.2737197279930115
1712257624799700000,3.687699951171875,-0.6306360363960266,-0.1359081268310547,-0.28232359886169434
1712257624809705700,3.697705810546875,-0.7558095455169678,-0.06474590301513672,-0.1689874529838562
1712257624819711500,3.70771142578125,-1.0571191310882568,-0.02701282501220703,-0.052706241607666016
1712257624829717200,3.71771728515625,-1.2944221496582031,-0.051491737365722656,0.08704793453216553
1712257624839722800,3.72772265625,-1.3026108741760254,-0.056977272033691406,0.15548670291900635
1712257624849728500,3.737728515625,-1.1338953971862793,-0.06268596649169922,0.19161367416381836
1712257624859734300,3.747734375,-0.8676871061325073,-0.07813167572021484,0.13821232318878174
1712257624869739800,3.75773974609375,-0.5962486267089844,-0.1365804672241211,-0.010059475898742676
1712257624879745500,3.76774560546875,-0.38347098231315613,-0.1995410919189453,-0.21628481149673462
1712257624889751300,3.777751220703125,-0.1934528797864914,-0.24775981903076172,-0.3336982727050781
1712257624899756800,3.7877568359375,-0.04914535582065582,-0.28124237060546875,-0.37261390686035156
1712257624909762600,3.797762451171875,0.08350019156932831,-0.26187992095947266,-0.21322941780090332
1712257624919768300,3.807768310546875,0.1046295315027237,-0.1994619369506836,-0.06973671913146973
1712257624929773800,3.81777392578125,0.01329805701971054,-0.12762737274169922,0.07806181907653809
1712257624939779600,3.827779541015625,-0.10117768496274948,-0.09424495697021484,0.14511650800704956
1712257624949785300,3.837785400390625,-0.16890721023082733,-0.0992431640625,0.1795901656150818
1712257624959790800,3.847790771484375,-0.07560981065034866,-0.12821674346923828,0.17710459232330322
1712257624969796600,3.857796630859375,0.045631326735019684,-0.1524333953857422,0.1520717740058899
1712257624979802400,3.86780224609375,0.17126643657684326,-0.12410926818847656,0.15189015865325928
1712257624989808000,3.87780810546875,0.16358205676078796,-0.09591388702392578,0.15272992849349976
1712257624999814000,3.88781396484375,-0.054278016090393066,-0.11556816101074219,-0.03229445219039917
1712257625009819600,3.897819580078125,-0.2833150029182434,-0.1637401580810547,-0.2277621328830719
1712257625019825200,3.9078251953125,-0.3521348536014557,-0.18776226043701172,-0.30562901496887207
1712257625029831000,3.917830810546875,-0.24608367681503296,-0.09694099426269531,-0.3188163936138153
1712257625039836700,3.927836669921875,-0.030436016619205475,0.031968116760253906,-0.15679281949996948
1712257625049842400,3.937842529296875,0.08570398390293121,0.08888626098632812,0.0387759804725647
1712257625059848200,3.94784814453125,0.10254499316215515,0.09784412384033203,0.034286439418792725
1712257625069854000,3.95785400390625,0.044124387204647064,0.0685281753540039,-0.09831559658050537
1712257625079859700,3.967859619140625,-0.090361587703228,0.04413890838623047,-0.288947731256485
1712257625089865500,3.977865478515625,-0.19656416773796082,-0.032584190368652344,-0.36189255118370056
1712257625099871000,3.98787109375,-0.16908352077007294,-0.06598281860351562,-0.3126688599586487
1712257625109876700,3.997876708984375,0.016747377812862396,-0.008350372314453125,-0.11499792337417603
1712257625119882500,4.007882568359375,0.12200356274843216,0.01532745361328125,0.08470845222473145
1712257625129888300,4.01788818359375,0.034336578100919724,0.005580902099609375,0.08916717767715454
1712257625139894000,4.02789404296875,-0.11786162853240967,-0.0746908187866211,0.0003071427345275879
1712257625149899800,4.037899658203125,-0.17490704357624054,-0.0783071517944336,-0.06322020292282104
1712257625159905500,4.047905517578125,-0.14773039519786835,-0.04419517517089844,-0.05035179853439331
1712257625169911300,4.057911376953125,-0.06083314120769501,-0.02952098846435547,0.033549487590789795
1712257625179916800,4.067916748046875,-0.022579306736588478,-0.03867149353027344,0.0224989652633667
1712257625189922600,4.077922607421875,-0.1075785681605339,-0.038272857666015625,0.012046337127685547
1712257625199928300,4.08792822265625,-0.23449116945266724,-0.047306060791015625,-0.007442057132720947
1712257625209934000,4.09793408203125,-0.3515702784061432,-0.03265857696533203,0.03491717576980591
1712257625219939800,4.10793994140625,-0.5398316383361816,0.009962081909179688,0.04904252290725708
1712257625229945600,4.117945556640625,-0.7760806083679199,0.037700653076171875,0.04513144493103027
1712257625239951400,4.127951416015625,-1.066483497619629,0.09790897369384766,0.009256541728973389
1712257625249957000,4.13795703125,-1.380791425704956,0.08178138732910156,-0.010961353778839111
1712257625259962600,4.147962646484375,-1.4814574718475342,0.028326988220214844,-0.03951108455657959
1712257625269968400,4.157968505859375,-1.424993634223938,-0.02403736114501953,-0.019915282726287842
1712257625279974100,4.16797412109375,-1.2988578081130981,-0.056311607360839844,-0.04227590560913086
1712257625289980000,4.17797998046875,-1.0274783372879028,-0.12508678436279297,0.04926186800003052
1712257625299985700,4.187985595703125,-0.54277503490448,-0.1119070053100586,0.12193948030471802
1712257625309991400,4.197991455078125,0.09188762307167053,-0.02747821807861328,0.13797616958618164
1712257625319997200,4.2079970703125,0.7602717876434326,-0.00038623809814453125,0.2068527638912201
1712257625330003000,4.2180029296875,1.1247260570526123,-0.10546588897705078,0.1861266791820526
1712257625340008700,4.2280087890625,1.1931097507476807,-0.096099853515625,0.05271434783935547
1712257625350014200,4.23801416015625,0.9694567918777466,-0.06483268737792969,-0.023544132709503174
1712257625360020000,4.24802001953125,0.4475574493408203,-0.05331993103027344,-0.1253719925880432
1712257625370025700,4.258025634765625,-0.0433468222618103,-0.0898427963256836,-0.17638742923736572
1712257625380031500,4.268031494140625,-0.3984152674674988,-0.08794498443603516,-0.18191592395305634
1712257625390037200,4.278037353515625,-0.6459505558013916,-0.10950088500976562,-0.14186662435531616
1712257625400043000,4.28804296875,-0.6783270835876465,-0.12087535858154297,-0.021700263023376465
1712257625410048800,4.298048828125,-0.6065660119056702,-0.12681198120117188,0.08403277397155762
1712257625420054500,4.308054443359375,-0.415671169757843,-0.11304473876953125,0.11885225772857666
1712257625430060000,4.31806005859375,-0.22375261783599854,-0.017630577087402344,0.16442126035690308
1712257625440065800,4.328065673828125,-0.16324353218078613,0.03015899658203125,0.33105921745300293
1712257625450071600,4.338071533203125,-0.022951364517211914,0.054221153259277344,0.2666485011577606
1712257625460077300,4.348077392578125,0.021264076232910156,0.05459880828857422,0.13694795966148376
1712257625470083000,4.3580830078125,-0.09248018264770508,-0.011618614196777344,0.09009876847267151
1712257625480088800,4.3680888671875,-0.28806072473526,-0.02471160888671875,-0.17167307436466217
1712257625490094600,4.378094482421875,-0.6288772225379944,-0.04662036895751953,-0.3778038024902344
1712257625500100400,4.388100341796875,-1.1898798942565918,-0.062422752380371094,-0.4818353056907654
1712257625510105900,4.39810595703125,-1.6317545175552368,-0.03305625915527344,-0.5277174711227417
1712257625520111600,4.408111572265625,-1.5796339511871338,0.027557373046875,-0.25123563408851624
1712257625530117400,4.418117431640625,-1.1422884464263916,0.09534358978271484,0.07257294654846191
1712257625540123100,4.428123046875,-0.7268758416175842,0.03123188018798828,0.31268468499183655
1712257625550129000,4.43812890625,-0.44895708560943604,0.03087615966796875,0.418038934469223
1712257625560134700,4.448134765625,-0.3731273412704468,0.04608154296875,0.48002493381500244
1712257625570140400,4.458140380859375,-0.4943596124649048,0.04826641082763672,0.43643712997436523
1712257625580146200,4.468146240234375,-0.6557140350341797,0.033039093017578125,0.35803860425949097
1712257625590152000,4.47815185546875,-0.8776769638061523,0.024784088134765625,0.33045661449432373
1712257625600157400,4.488157470703125,-1.1184881925582886,-0.052433013916015625,0.2150566130876541
1712257625610163200,4.4981630859375,-1.1448405981063843,-0.06424236297607422,0.12481699883937836
1712257625620169000,4.5081689453125,-1.0469776391983032,-0.034694671630859375,0.12085935473442078
1712257625630174700,4.5181748046875,-1.020589828491211,-0.12141132354736328,0.011435605585575104
1712257625640180500,4.528180419921875,-0.979882001876831,-0.2760000228881836,-0.14268702268600464
1712257625650186200,4.538186279296875,-0.9863131046295166,-0.40751171112060547,-0.15428639948368073
1712257625660192000,4.54819189453125,-1.2179629802703857,-0.5057287216186523,-0.24804705381393433
1712257625670197800,4.55819775390625,-1.2603230476379395,-0.5889482498168945,-0.16544868052005768
1712257625680203300,4.568203369140625,-1.2287821769714355,-0.5420217514038086,-0.011348232626914978
1712257625690209000,4.578208984375,-1.0271739959716797,-0.5370340347290039,0.09116198122501373
1712257625700214800,4.58821484375,-0.6534852981567383,-0.5122995376586914,0.2133389413356781
1712257625710220500,4.598220458984375,-0.44351863861083984,-0.6267366409301758,0.2993681728839874
1712257625720226300,4.608226318359375,-0.42766833305358887,-0.7425365447998047,0.12051893025636673
1712257625730232000,4.618232177734375,-0.6873619556427002,-0.7782354354858398,-0.03961634635925293
1712257625740237800,4.62823779296875,-1.1241788864135742,-0.9046788215637207,-0.2480107843875885
1712257625750243600,4.63824365234375,-1.4489200115203857,-1.0007004737854004,-0.4729459881782532
1712257625760249000,4.6482490234375,-1.5022974014282227,-1.0311355590820312,-0.7582916617393494
1712257625770254800,4.6582548828125,-1.2042412757873535,-1.090951919555664,-0.8420364856719971
1712257625780260600,4.668260498046875,-0.6855583190917969,-1.2054948806762695,-0.7756692171096802
1712257625790266400,4.678266357421875,-0.023283958435058594,-1.2099642753601074,-0.7216497659683228
1712257625800272100,4.688272216796875,0.4090595245361328,-1.1980719566345215,-0.532380223274231
1712257625810278000,4.69827783203125,0.40385866165161133,-1.1092562675476074,-0.33880090713500977
1712257625820283400,4.708283447265625,0.5198636054992676,-0.9526948928833008,-0.2689645290374756
1712257625830289200,4.7182890625,0.8148908615112305,-0.8344974517822266,-0.09870713204145432
1712257625840295000,4.728294921875,0.760350227355957,-0.6704983711242676,0.26619428396224976
1712257625850300400,4.738300537109375,0.8336472511291504,-0.44619226455688477,0.5315144062042236
1712257625860306200,4.74830615234375,0.9248771667480469,-0.28677845001220703,0.7076438069343567
1712257625870312000,4.75831201171875,0.7180123329162598,-0.1969165802001953,0.6550196409225464
1712257625880317400,4.7683173828125,0.4114084243774414,-0.18386125564575195,0.44382500648498535
1712257625890323200,4.7783232421875,-0.4347062110900879,-0.5146441459655762,0.20425385236740112
1712257625900329000,4.788328857421875,-0.7566075325012207,-0.024034500122070312,-0.8156660199165344
1712257625910334500,4.79833447265625,-0.5076212882995605,-0.26183366775512695,-0.07214342057704926
1712257625920340200,4.80834033203125,0.38109874725341797,-0.6606340408325195,0.35870465636253357
1712257625930346000,4.818345947265625,0.9640154838562012,-0.3483157157897949,0.05434879660606384
1712257625940351500,4.8283515625,1.1488962173461914,-0.2568373680114746,0.10419252514839172
1712257625950357200,4.838357177734375,0.9689946174621582,-0.2940807342529297,0.07872000336647034
1712257625960363000,4.848363037109375,0.0802469253540039,-0.32395172119140625,-0.3686213493347168
1712257625970368500,4.858368408203125,-0.6019186973571777,-0.3457050323486328,-0.5711967945098877
1712257625980374300,4.868374267578125,-0.5010790824890137,-0.43402767181396484,-0.351193904876709
1712257625990380000,4.878380126953125,-0.08846759796142578,-0.506894588470459,0.00557294487953186
1712257626000385800,4.8883857421875,0.11812019348144531,-0.4583406448364258,0.12481600046157837
1712257626010391300,4.898391357421875,0.40699195861816406,-0.34090757369995117,0.13315904140472412
1712257626020397000,4.90839697265625,0.9808826446533203,-0.046393394470214844,0.47638440132141113
1712257626030402800,4.91840283203125,0.5560941696166992,-0.3293757438659668,0.7501974701881409
1712257626040408300,4.928408203125,1.2886581420898438,0.1692824363708496,0.24248790740966797
1712257626050414000,4.9384140625,1.7773256301879883,-0.037441253662109375,0.5100910663604736
1712257626060419800,4.948419921875,2.708184242248535,0.06691646575927734,-0.049875155091285706
1712257626070425300,4.95842529296875,3.5911569595336914,0.1331033706665039,-0.3259310722351074
1712257626080431000,4.96843115234375,3.9507598876953125,-0.02729654312133789,-0.4723219871520996
1712257626090436900,4.978436767578125,3.662848472595215,-0.09321856498718262,-0.5345535278320312
1712257626100442400,4.9884423828125,2.9880924224853516,-0.10704946517944336,-0.4300667345523834
1712257626110448000,4.9984482421875,1.9686222076416016,-0.16116762161254883,-0.6481691598892212
1712257626120454000,5.008453857421875,1.3113994598388672,-0.07207989692687988,-0.8450895547866821
1712257626130459400,5.01845947265625,1.1804847717285156,-0.04105520248413086,-0.8118604421615601
1712257626140465200,5.028465087890625,1.168961524963379,-0.14066576957702637,-0.5562757253646851
1712257626150471000,5.038470947265625,0.9087867736816406,-0.10775518417358398,-0.210703045129776
1712257626160476700,5.0484765625,0.6290903091430664,0.03985285758972168,0.10606139898300171
1712257626170482400,5.058482421875,0.5737876892089844,0.12511324882507324,0.3526732921600342
1712257626180488200,5.06848828125,0.5477533340454102,0.17508697509765625,0.5984570384025574
1712257626190493700,5.07849365234375,0.5428400039672852,0.26429104804992676,0.6230533719062805
1712257626200499500,5.08849951171875,0.5604839324951172,0.2947812080383301,0.48942917585372925
1712257626210505700,5.098505615234375,0.3667030334472656,0.1950535774230957,0.2103348970413208
1712257626220511500,5.108511474609375,0.01743030548095703,0.11718630790710449,-0.18312036991119385
1712257626230517000,5.11851708984375,-0.25040531158447266,0.046173095703125,-0.36191481351852417
1712257626240522800,5.128522705078125,-0.3047351837158203,0.013056278228759766,-0.358581006526947
1712257626250528500,5.138528564453125,-0.3282127380371094,0.04682350158691406,-0.3064262866973877
1712257626260534300,5.1485341796875,-0.19203662872314453,0.10917901992797852,-0.30572158098220825
1712257626270540000,5.1585400390625,0.03275489807128906,0.15500664710998535,-0.21452754735946655
1712257626280545800,5.1685458984375,0.18483543395996094,0.15320467948913574,-0.07867437601089478
1712257626290551600,5.178551513671875,0.22725200653076172,0.1018373966217041,-0.0007224082946777344
1712257626300557300,5.188557373046875,0.22306251525878906,0.09538149833679199,-0.02593827247619629
1712257626310562800,5.198562744140625,0.20168781280517578,0.10419988632202148,-0.05822962522506714
1712257626320568600,5.208568603515625,0.18290328979492188,0.13701200485229492,0.01637217402458191
1712257626330574300,5.21857421875,-0.04814338684082031,0.13648319244384766,0.15682953596115112
1712257626340580000,5.228580078125,-0.32506370544433594,0.1676621437072754,0.18229755759239197
1712257626350585900,5.2385859375,-0.5203847885131836,0.17624235153198242,0.21225228905677795
1712257626360591600,5.248591552734375,-0.6644210815429688,0.1693410873413086,0.2593061327934265
1712257626370597400,5.258597412109375,-0.5479230880737305,0.2055492401123047,0.1312575340270996
1712257626380603100,5.26860302734375,-0.2567300796508789,0.22579240798950195,-0.019703209400177002
1712257626390609000,5.27860888671875,-0.11493110656738281,0.14146852493286133,-0.05825972557067871
1712257626400614400,5.288614501953125,-0.12179756164550781,0.10029983520507812,-0.2053687572479248
1712257626410620200,5.2986201171875,-0.17163467407226562,0.0925750732421875,-0.2067016065120697
1712257626420626000,5.3086259765625,-0.15401935577392578,0.0698394775390625,-0.09984934329986572
1712257626430631700,5.318631591796875,-0.039511680603027344,0.11643457412719727,0.02920028567314148
1712257626440637400,5.328637451171875,0.06780242919921875,0.16759014129638672,0.12077188491821289
1712257626450643200,5.338643310546875,0.0009288787841796875,0.14665985107421875,0.211980402469635
1712257626460649000,5.34864892578125,-0.07822513580322266,0.16090869903564453,0.15579184889793396
1712257626470654700,5.35865478515625,-0.17051029205322266,0.17370271682739258,0.051633626222610474
1712257626480660200,5.36866015625,-0.4112672805786133,0.14032793045043945,0.0190182626247406
1712257626490666000,5.378666015625,-0.6061534881591797,0.15488433837890625,-0.017427504062652588
1712257626500671700,5.388671630859375,-0.6606683731079102,0.1614518165588379,-0.05530822277069092
1712257626510677500,5.398677490234375,-0.5034351348876953,0.1264057159423828,-0.07596996426582336
1712257626520683300,5.408683349609375,-0.2337017059326172,0.06584596633911133,-0.14836528897285461
1712257626530689000,5.41868896484375,0.00180816650390625,0.029386520385742188,-0.26161301136016846
1712257626540694800,5.42869482421875,0.0944662094116211,0.014992713928222656,-0.21895815432071686
1712257626550700500,5.438700439453125,0.1165008544921875,-0.0015912055969238281,-0.13703912496566772
1712257626560706000,5.4487060546875,0.04402446746826172,0.027861595153808594,-0.141038715839386
1712257626570711800,5.4587119140625,-0.018239974975585938,0.05193281173706055,-0.08748900890350342
1712257626580717600,5.468717529296875,-0.18077850341796875,0.08586788177490234,0.02708294987678528
1712257626590723300,5.478723388671875,-0.30573463439941406,0.09759187698364258,0.054659247398376465
1712257626600729000,5.48872900390625,-0.38430213928222656,0.1646890640258789,0.08372911810874939
1712257626610734800,5.49873486328125,-0.3921337127685547,0.2034449577331543,0.01899757981300354
1712257626620740600,5.50874072265625,-0.31661033630371094,0.18311214447021484,-0.1769055724143982
1712257626630746400,5.518746337890625,-0.18178367614746094,0.12679433822631836,-0.33597955107688904
1712257626640752000,5.528752197265625,-0.05383110046386719,0.06205558776855469,-0.3434789180755615
1712257626650757600,5.538757568359375,0.19036388397216797,0.115081787109375,-0.41062605381011963
1712257626660763400,5.548763427734375,0.36165332794189453,0.09805059432983398,-0.4345000386238098
1712257626670769200,5.55876904296875,0.3816347122192383,0.034911155700683594,-0.43213218450546265
1712257626680775000,5.56877490234375,0.24322509765625,-0.012077808380126953,-0.407377690076828
1712257626690780700,5.57878076171875,-0.051947593688964844,-0.09313678741455078,-0.17821404337882996
1712257626700786400,5.588786376953125,-0.3805732727050781,-0.0537266731262207,0.04330164194107056
1712257626710792200,5.598792236328125,-0.5837888717651367,0.11232900619506836,0.14119818806648254
1712257626720798000,5.6087978515625,-0.5231332778930664,0.19709539413452148,0.2075500190258026
1712257626730803500,5.618803466796875,-0.2870979309082031,0.13921833038330078,0.25903621315956116
1712257626740809200,5.628809326171875,0.1324443817138672,0.15446710586547852,0.10188272595405579
1712257626750815000,5.63881494140625,0.46613216400146484,0.1528611183166504,-0.050982698798179626
1712257626760820700,5.64882080078125,0.6274232864379883,0.12240266799926758,-0.1453857272863388
1712257626770826500,5.658826416015625,0.5585947036743164,0.0954141616821289,-0.20778876543045044
1712257626780832300,5.668832275390625,0.2861595153808594,0.07831859588623047,-0.22022117674350739
1712257626790838000,5.678838134765625,0.024143218994140625,0.08758783340454102,-0.19700172543525696
1712257626800843800,5.68884375,-0.29488658905029297,0.05483245849609375,-0.034817710518836975
1712257626810849300,5.698849365234375,-0.5253562927246094,0.07747793197631836,0.18115761876106262
1712257626820855000,5.70885498046875,-0.5751657485961914,0.16047286987304688,0.2427634596824646
1712257626830860800,5.71886083984375,-0.5087089538574219,0.1995840072631836,0.2177598476409912
1712257626840866600,5.728866455078125,-0.34162425994873047,0.18988656997680664,0.23131057620048523
1712257626850872300,5.738872314453125,-0.15479469299316406,0.15869903564453125,0.1380951702594757
1712257626860878000,5.748878173828125,0.009842872619628906,0.10955286026000977,0.0012832581996917725
1712257626870883800,5.7588837890625,0.11559104919433594,0.09807968139648438,-0.056162029504776
1712257626880889600,5.7688896484375,0.18283939361572266,0.11313104629516602,-0.09728024899959564
1712257626890895000,5.77889501953125,0.1938638687133789,0.09221744537353516,-0.10964527726173401
1712257626900900900,5.78890087890625,0.08840084075927734,0.059566497802734375,-0.0390779972076416
1712257626910906600,5.79890673828125,-0.0710744857788086,0.11561965942382812,0.07500258088111877
1712257626920912400,5.808912353515625,-0.12906837463378906,0.18040847778320312,0.15676796436309814
1712257626930918100,5.818918212890625,-0.06375312805175781,0.1643061637878418,0.22670429944992065
1712257626940924000,5.828923828125,-0.06529808044433594,0.13400888442993164,0.24928179383277893
1712257626950929700,5.8389296875,-0.09060955047607422,0.12337303161621094,0.09999698400497437
1712257626960935400,5.848935302734375,-0.06385326385498047,0.1083822250366211,-0.0496150404214859
1712257626970941200,5.858941162109375,-0.09873390197753906,0.06540489196777344,-0.13625849783420563
1712257626980946700,5.86894677734375,-0.14268112182617188,0.0472712516784668,-0.1952374428510666
1712257626990952400,5.878952392578125,-0.157806396484375,0.015724658966064453,-0.18408802151679993
1712257627000958200,5.888958251953125,-0.10686874389648438,-0.01027822494506836,-0.12285642325878143
1712257627010963700,5.898963623046875,-0.023794174194335938,0.034807682037353516,-0.09205396473407745
1712257627020969500,5.908969482421875,0.006134986877441406,0.09312009811401367,0.005519956350326538
1712257627030975200,5.918975341796875,0.09218597412109375,0.10770463943481445,0.09453511238098145
1712257627040980700,5.928980712890625,0.1396007537841797,0.09753656387329102,0.08412539958953857
1712257627050986500,5.938986572265625,0.08746719360351562,0.11548995971679688,-0.03809516131877899
1712257627060992300,5.9489921875,0.14437389373779297,0.11931228637695312,-0.1306770294904709
1712257627070997800,5.958997802734375,0.34694671630859375,0.12199068069458008,-0.13497082889080048
1712257627081003500,5.96900341796875,0.4349040985107422,0.04597139358520508,0.0005066990852355957
1712257627091009300,5.97900927734375,0.3302040100097656,0.02411937713623047,-0.00706171989440918
1712257627101015000,5.98901513671875,0.13901710510253906,0.023888111114501953,-0.09053277969360352
1712257627111020500,5.9990205078125,0.04537391662597656,0.03764057159423828,-0.1514715552330017
1712257627121026300,6.0090263671875,0.009801864624023438,0.022978782653808594,-0.17874345183372498
1712257627131032000,6.019031982421875,-0.006402015686035156,-0.0007114410400390625,-0.10620397329330444
1712257627141037600,6.02903759765625,-0.12632083892822266,0.014417171478271484,-0.019976407289505005
1712257627151043300,6.039043212890625,-0.21245098114013672,0.07378053665161133,0.0483209490776062
1712257627161049000,6.049049072265625,-0.15241527557373047,0.14382648468017578,0.09357291460037231
1712257627171054600,6.0590546875,-0.037570953369140625,0.13388633728027344,0.15371173620224
1712257627181060400,6.069060302734375,0.10857200622558594,0.09057283401489258,0.1394173800945282
1712257627191066000,6.079066162109375,0.20166015625,0.06459951400756836,0.08369946479797363
1712257627201071600,6.089071533203125,0.17723751068115234,0.05477285385131836,-0.019835740327835083
1712257627211077400,6.099077392578125,0.04621696472167969,0.04764509201049805,-0.09123940765857697
1712257627221083100,6.109083251953125,-0.14333057403564453,0.02101278305053711,-0.08708319067955017
1712257627231088600,6.119088623046875,-0.3020172119140625,0.010078907012939453,-0.045930296182632446
1712257627241094400,6.129094482421875,-0.4502544403076172,0.07292366027832031,-0.018905967473983765
1712257627251100200,6.13910009765625,-0.4429912567138672,0.12473058700561523,0.038912296295166016
1712257627261105700,6.149105712890625,-0.3386526107788086,0.11743927001953125,0.13976052403450012
1712257627271111400,6.159111328125,-0.2844724655151367,0.09845495223999023,0.06640365719795227
1712257627281117200,6.1691171875,-0.2039022445678711,0.07198429107666016,-0.04614126682281494
1712257627291122700,6.179122802734375,-0.11068153381347656,-0.005646705627441406,-0.04758007824420929
1712257627301128400,6.18912841796875,-0.13639450073242188,-0.04023122787475586,-0.05317264795303345
1712257627311134200,6.19913427734375,-0.18038177490234375,0.0009317398071289062,-0.08314025402069092
1712257627321139700,6.2091396484375,-0.15757274627685547,0.02721691131591797,-0.10168468952178955
1712257627331145500,6.2191455078125,-0.08296775817871094,-0.0038657188415527344,-0.1196746677160263
1712257627341151200,6.229151123046875,-0.07481098175048828,-0.026074886322021484,-0.0989467054605484
1712257627351157000,6.239156982421875,-0.08038806915283203,-0.006320476531982422,-0.11422905325889587
1712257627361162800,6.249162841796875,-0.21759986877441406,0.041205406188964844,-0.03100651502609253
1712257627371168500,6.25916845703125,-0.4669971466064453,0.08095836639404297,0.08721506595611572
1712257627381174000,6.269174072265625,-0.5309352874755859,0.13802862167358398,0.1475982666015625
1712257627391179800,6.2791796875,-0.4878044128417969,0.1508769989013672,0.16926780343055725
1712257627401185500,6.289185546875,-0.32464599609375,0.17575645446777344,0.07585957646369934
1712257627411191300,6.29919140625,-0.046645164489746094,0.16760635375976562,-0.06861473619937897
1712257627421197000,6.309197021484375,0.1763162612915039,0.12439584732055664,-0.1346890926361084
1712257627431202800,6.319202880859375,0.3128957748413086,0.11145973205566406,-0.172608882188797
1712257627441208600,6.32920849609375,0.4213752746582031,0.09943056106567383,-0.24881191551685333
1712257627451214300,6.33921435546875,0.5260639190673828,-0.0017066001892089844,-0.20218460261821747
1712257627461220000,6.34922021484375,0.5894174575805664,-0.09168863296508789,-0.104667067527771
1712257627471225600,6.3592255859375,0.48472118377685547,-0.1421833038330078,-0.056271493434906006
1712257627481231400,6.3692314453125,0.284332275390625,-0.12859439849853516,0.013322561979293823
1712257627491237000,6.379237060546875,-0.007159233093261719,-0.030201435089111328,0.09565290808677673
1712257627501243000,6.389242919921875,-0.3003997802734375,0.04125356674194336,0.11288431286811829
1712257627511248600,6.39924853515625,-0.4460000991821289,0.06973028182983398,0.06969711184501648
1712257627521254400,6.40925439453125,-0.47506237030029297,0.08971691131591797,-0.02581566572189331
1712257627531260200,6.41926025390625,-0.35112857818603516,0.06725358963012695,-0.11854839324951172
1712257627541266000,6.429265869140625,-0.11784744262695312,0.07632780075073242,-0.1547040492296219
1712257627551271400,6.439271484375,0.2058706283569336,0.09933853149414062,-0.09455852210521698
1712257627561277200,6.449277099609375,0.39434337615966797,0.13269853591918945,0.038376837968826294
1712257627571283000,6.459282958984375,0.4457836151123047,0.1561903953552246,0.17268720269203186
1712257627581288700,6.469288818359375,0.35303592681884766,0.19357728958129883,0.22816887497901917
1712257627591294500,6.47929443359375,0.15543746948242188,0.18466663360595703,0.26364022493362427
1712257627601300200,6.48930029296875,-0.11393451690673828,0.17059564590454102,0.2725377082824707
1712257627611306000,6.499305908203125,-0.2526435852050781,0.16765546798706055,0.19972708821296692
1712257627621311700,6.509311767578125,-0.4520835876464844,0.13962459564208984,0.12007343769073486
1712257627631317200,6.519317138671875,-0.5711135864257812,0.09832954406738281,0.028260797262191772
1712257627641323000,6.529322998046875,-0.5310497283935547,0.06274795532226562,0.015341997146606445
1712257627651328800,6.539328857421875,-0.40421199798583984,-0.01129770278930664,0.0006681680679321289
1712257627661334500,6.54933447265625,-0.2476215362548828,-0.02570819854736328,-0.0981135368347168
1712257627671340300,6.55934033203125,-0.079498291015625,-0.0020804405212402344,-0.2111910879611969
1712257627681346000,6.569345947265625,0.03025341033935547,-0.008484840393066406,-0.15607978403568268
1712257627691351800,6.579351806640625,0.06918907165527344,-0.031497955322265625,-0.0352800190448761
1712257627701357600,6.589357666015625,0.005413055419921875,0.01415395736694336,-0.010877162218093872
1712257627711363000,6.599363037109375,-0.051837921142578125,0.08159351348876953,-0.0011567771434783936
1712257627721368800,6.609368896484375,-0.11286067962646484,0.08206415176391602,0.08331775665283203
1712257627731374600,6.61937451171875,-0.12162208557128906,0.036203861236572266,0.07542255520820618
1712257627741380400,6.62938037109375,-0.11218738555908203,0.025104999542236328,0.03488585352897644
1712257627751386000,6.63938623046875,-0.09433555603027344,0.03895378112792969,-0.0060037970542907715
1712257627761391900,6.649391845703125,0.054564476013183594,0.09116268157958984,-0.13639235496520996
1712257627771397600,6.659397705078125,0.18692779541015625,0.08587265014648438,-0.061957985162734985
1712257627781403400,6.6694033203125,0.3510599136352539,0.06476116180419922,-0.0027618110179901123
1712257627791409200,6.6794091796875,0.4576301574707031,0.10233259201049805,-0.03968563675880432
1712257627801414700,6.68941455078125,0.4843597412109375,0.06515693664550781,-0.12771078944206238
1712257627811420400,6.69942041015625,0.4513511657714844,-0.007746696472167969,-0.14821697771549225
1712257627821426200,6.70942626953125,0.3500375747680664,-0.01663827896118164,-0.1022789478302002
1712257627831432000,6.719431884765625,0.16684436798095703,0.03376340866088867,-0.08526815474033356
1712257627841437700,6.729437744140625,-0.0035543441772460938,0.03099966049194336,-0.0921357274055481
1712257627851443500,6.739443359375,-0.09128856658935547,0.014627456665039062,-0.10905139148235321
1712257627861449200,6.74944921875,-0.16880512237548828,0.042177677154541016,-0.06112441420555115
1712257627871455000,6.759455078125,-0.20842361450195312,0.061838626861572266,-0.0110931396484375
1712257627881460500,6.76946044921875,-0.20639801025390625,0.08838653564453125,0.06520766019821167
1712257627891466200,6.77946630859375,-0.14923858642578125,0.09797430038452148,0.05080398917198181
1712257627901472000,6.789471923828125,-0.07063007354736328,0.08102273941040039,0.024050354957580566
1712257627911477800,6.799477783203125,-0.05052661895751953,0.06063508987426758,0.010184824466705322
1712257627921483500,6.8094833984375,-0.03131675720214844,0.04131317138671875,0.00014841556549072266
1712257627931489300,6.8194892578125,-0.0031061172485351562,0.05057382583618164,0.016258448362350464
1712257627941495000,6.8294951171875,-0.05985069274902344,0.05914020538330078,0.10883042216300964
1712257627951500800,6.839500732421875,-0.1485157012939453,0.09561014175415039,0.17246931791305542
1712257627961506300,6.84950634765625,-0.19323348999023438,0.10780858993530273,0.14040979743003845
1712257627971512000,6.859511962890625,-0.23717498779296875,0.09632539749145508,0.1729850172996521
1712257627981517800,6.869517822265625,-0.2522125244140625,0.0759282112121582,0.11737993359565735
1712257627991523600,6.879523681640625,-0.1683788299560547,0.06127786636352539,-0.04038122296333313
1712257628001529300,6.889529296875,-0.09546852111816406,0.009580135345458984,-0.11868475377559662
1712257628011535000,6.89953515625,-0.0050411224365234375,-0.06459236145019531,-0.09256161749362946
1712257628021540900,6.909540771484375,0.11206531524658203,-0.033915042877197266,-0.06541724503040314
1712257628031546600,6.919546630859375,0.18991756439208984,-0.014046192169189453,-0.034562110900878906
1712257628041552400,6.929552490234375,0.16345596313476562,-0.014496326446533203,-0.024922102689743042
1712257628051558000,6.939557861328125,0.05778694152832031,0.01251220703125,0.005483657121658325
1712257628061563600,6.949563720703125,-0.060199737548828125,0.043598175048828125,0.046727269887924194
1712257628071569400,6.9595693359375,-0.13880348205566406,0.08400487899780273,0.07362428307533264
1712257628081575200,6.9695751953125,-0.18830204010009766,0.1152791976928711,-0.0018219053745269775
1712257628091581000,6.979580810546875,-0.16678142547607422,0.08580303192138672,-0.08038325607776642
1712257628101586700,6.989586669921875,-0.04227256774902344,0.03862476348876953,-0.13362020254135132
1712257628111592200,6.99959228515625,0.08530426025390625,0.015178680419921875,-0.10867369174957275
1712257628121598000,7.009597900390625,0.1362619400024414,0.009541511535644531,-0.07520246505737305
1712257628131603700,7.019603759765625,0.10714054107666016,0.01670217514038086,-0.04176957905292511
1712257628141609500,7.029609375,0.06958770751953125,0.022854328155517578,0.005893617868423462
1712257628151615000,7.039614990234375,-0.0050811767578125,0.03831195831298828,0.10703331232070923
1712257628161620700,7.049620849609375,-0.06484413146972656,0.03527545928955078,0.13465246558189392
1712257628171626500,7.05962646484375,-0.05368804931640625,0.052182674407958984,0.0608387291431427
1712257628181632000,7.069632080078125,-0.014683723449707031,0.03611898422241211,0.018326789140701294
1712257628191637800,7.0796376953125,-0.02798175811767578,0.029474258422851562,-0.04648482799530029
1712257628201643500,7.0896435546875,-0.10205268859863281,0.046133995056152344,-0.09628435969352722
1712257628211649000,7.09964892578125,-0.24574565887451172,0.03462791442871094,-0.10697789490222931
1712257628221654800,7.10965478515625,-0.2747049331665039,0.038607120513916016,-0.08016221225261688
1712257628231660500,7.11966064453125,-0.2991456985473633,0.06260156631469727,-0.06508275866508484
1712257628241666000,7.129666015625,-0.2673015594482422,0.08744430541992188,-0.06337393820285797
1712257628251671800,7.139671875,-0.1566610336303711,0.07091999053955078,-0.05171181261539459
1712257628261677600,7.149677490234375,0.031937599182128906,0.05991506576538086,-0.06615185737609863
1712257628271683000,7.15968310546875,0.17553997039794922,0.01524496078491211,0.004490256309509277
1712257628281688800,7.169688720703125,0.2516746520996094,0.002754688262939453,0.02393108606338501
1712257628291694600,7.179694580078125,0.22873687744140625,-0.030326366424560547,-0.029783278703689575
1712257628301700000,7.1897001953125,0.15024089813232422,-0.0450749397277832,-0.1232442855834961
1712257628311705900,7.199705810546875,0.035533905029296875,-0.05989646911621094,-0.1668313443660736
1712257628321711600,7.209711669921875,-0.03989410400390625,-0.04573678970336914,-0.16191047430038452
1712257628331717000,7.219717041015625,-0.10030555725097656,-0.01703786849975586,-0.1527959406375885
1712257628341723000,7.229722900390625,-0.16507434844970703,0.02648782730102539,-0.06496985256671906
1712257628351728600,7.239728759765625,-0.14008045196533203,0.07063865661621094,0.020990416407585144
1712257628361734100,7.249734130859375,-0.049927711486816406,0.0817098617553711,0.09083645045757294
1712257628371740000,7.259739990234375,0.0011138916015625,0.08307552337646484,0.10306157171726227
1712257628381745700,7.26974560546875,0.07959556579589844,0.07019519805908203,0.06865158677101135
1712257628391751200,7.279751220703125,0.18575668334960938,0.051577091217041016,-0.0407518595457077
1712257628401757000,7.2897568359375,0.2490825653076172,0.012213706970214844,-0.017003655433654785
1712257628411762700,7.2997626953125,0.0819692611694336,0.051291465759277344,0.17532408237457275
1712257628421768200,7.309768310546875,-0.12958621978759766,0.13701486587524414,0.20034632086753845
1712257628431774000,7.31977392578125,-0.21150875091552734,0.14299917221069336,0.2111417055130005
1712257628441779700,7.32977978515625,-0.18994140625,0.11837244033813477,0.1756492257118225
1712257628451785200,7.33978515625,-0.08470726013183594,0.1047978401184082,0.04219678044319153
1712257628461791000,7.349791015625,-0.037751197814941406,0.039666175842285156,-0.022607728838920593
1712257628471796700,7.359796630859375,0.04623985290527344,0.03187084197998047,-0.1334126591682434
1712257628481802500,7.369802490234375,0.14842796325683594,0.03241872787475586,-0.17835554480552673
1712257628491808300,7.379808349609375,0.14161205291748047,-0.025206565856933594,-0.04913631081581116
1712257628501813800,7.389813720703125,0.11673831939697266,-0.01710033416748047,0.00762629508972168
1712257628511819500,7.399819580078125,0.06442832946777344,0.013703346252441406,0.012220174074172974
1712257628521825300,7.4098251953125,0.0037126541137695312,-0.008068084716796875,0.05503040552139282
1712257628531831000,7.4198310546875,-0.0985879898071289,0.008533477783203125,0.1119232177734375
1712257628541836800,7.4298369140625,-0.21855640411376953,0.049266815185546875,0.12654808163642883
1712257628551842600,7.439842529296875,-0.32355690002441406,0.0677022933959961,0.09004491567611694
1712257628561848300,7.449848388671875,-0.3340902328491211,0.07418107986450195,-0.05881044268608093
1712257628571854000,7.45985400390625,-0.2277231216430664,0.016333580017089844,-0.18665015697479248
1712257628581859600,7.469859619140625,-0.1563854217529297,-0.044703006744384766,-0.20492613315582275
1712257628591865300,7.479865234375,-0.1285562515258789,-0.04828166961669922,-0.1764238029718399
1712257628601871000,7.48987109375,-0.11049461364746094,-0.023711681365966797,-0.12534505128860474
1712257628611876900,7.499876953125,-0.09255313873291016,-0.004511833190917969,-0.0809401422739029
1712257628621882600,7.509882568359375,-0.07959747314453125,0.01908731460571289,-0.01936131715774536
1712257628631888400,7.519888427734375,-0.005629539489746094,0.07996225357055664,0.05007407069206238
1712257628641894100,7.52989404296875,0.0625619888305664,0.11599445343017578,0.10908286273479462
1712257628651900000,7.53989990234375,0.1440582275390625,0.1179037094116211,0.07346919178962708
1712257628661905700,7.54990576171875,0.2341480255126953,0.10004758834838867,-0.02309119701385498
1712257628671911200,7.5599111328125,0.2906665802001953,0.04801654815673828,-0.04773436486721039
1712257628681917000,7.5699169921875,0.2481832504272461,0.004849433898925781,-0.062349796295166016
1712257628691922700,7.579922607421875,0.21657085418701172,-0.005950450897216797,-0.13734421133995056
1712257628701928400,7.589928466796875,0.1484508514404297,-0.03653383255004883,-0.0972389280796051
1712257628711934200,7.599934326171875,0.006075859069824219,-0.05246305465698242,0.014376789331436157
1712257628721940000,7.60993994140625,-0.03534126281738281,0.007649898529052734,0.054998576641082764
1712257628731945700,7.61994580078125,-0.0668802261352539,0.05777597427368164,0.07063958048820496
1712257628741951500,7.629951416015625,-0.13072776794433594,0.08332443237304688,0.11393503844738007
1712257628751957000,7.63995703125,-0.20772838592529297,0.0568079948425293,0.10007922351360321
1712257628761962800,7.649962646484375,-0.2887563705444336,0.031795501708984375,0.024558231234550476
1712257628771968500,7.659968505859375,-0.29909515380859375,0.04710817337036133,-0.01730901002883911
1712257628781974300,7.669974365234375,-0.1835002899169922,0.04566621780395508,-0.048764824867248535
1712257628791980000,7.67997998046875,-0.009213447570800781,0.021699905395507812,-0.050865739583969116
1712257628801985800,7.68998583984375,0.15776348114013672,0.030566692352294922,-0.04793253540992737
1712257628811991600,7.699991455078125,0.2147369384765625,0.04682779312133789,0.0168931782245636
1712257628821997300,7.709997314453125,0.18729496002197266,0.05586528778076172,0.03893105685710907
1712257628832002800,7.7200029296875,0.08596992492675781,0.048917293548583984,0.027597010135650635
1712257628842008600,7.730008544921875,-0.05566883087158203,0.022615432739257812,0.04451712965965271
1712257628852014300,7.740014404296875,-0.13386058807373047,0.025255203247070312,0.022652238607406616
1712257628862020000,7.75002001953125,-0.19243717193603516,0.024120807647705078,-0.01963120698928833
1712257628872025900,7.76002587890625,-0.14242172241210938,0.0430903434753418,-0.011340171098709106
1712257628882031600,7.770031494140625,-0.03712654113769531,0.04832649230957031,-0.041821807622909546
1712257628892037400,7.780037353515625,0.06647872924804688,0.034555912017822266,-0.09597763419151306
1712257628902043100,7.790043212890625,0.10732269287109375,-0.01228952407836914,-0.12466263771057129
1712257628912049000,7.800048828125,0.0864114761352539,-0.025724411010742188,-0.13651305437088013
1712257628922054400,7.810054443359375,0.07999420166015625,-0.010836601257324219,-0.13580255210399628
1712257628932060200,7.82006005859375,0.03130531311035156,0.003730297088623047,-0.07189702242612839
1712257628942066000,7.83006591796875,-0.0024442672729492188,0.03689002990722656,-0.018435880541801453
1712257628952071700,7.84007177734375,-0.0024862289428710938,0.04568147659301758,0.037786245346069336
1712257628962077400,7.850077392578125,0.01206207275390625,0.011219024658203125,0.1384303718805313
1712257628972083200,7.860083251953125,-0.020299911499023438,0.019059181213378906,0.21664953231811523
1712257628982089000,7.8700888671875,-0.0660104751586914,0.07347393035888672,0.21751292049884796
1712257628992094700,7.8800947265625,-0.1015939712524414,0.0893716812133789,0.21923266351222992
1712257629002100200,7.890100341796875,-0.15098953247070312,0.086578369140625,0.1426711529493332
1712257629012106000,7.90010595703125,-0.17667102813720703,0.08488607406616211,-0.01570245623588562
1712257629022111700,7.91011181640625,-0.16473388671875,0.06990718841552734,-0.18056371808052063
1712257629032117500,7.920117431640625,-0.13925743103027344,0.06533145904541016,-0.3351181149482727
1712257629042123300,7.930123291015625,-0.09559154510498047,0.051896095275878906,-0.42407456040382385
1712257629052129000,7.94012890625,-0.0244903564453125,0.02007150650024414,-0.39121416211128235
1712257629062134800,7.950134765625,0.08341217041015625,-0.002304553985595703,-0.31788522005081177
1712257629072140500,7.960140625,0.12891674041748047,-0.02535104751586914,-0.17530716955661774
1712257629082146000,7.97014599609375,0.09427356719970703,-0.02562427520751953,-0.034192368388175964
1712257629092151800,7.98015185546875,0.022823333740234375,-0.012305259704589844,0.044889047741889954
1712257629102157600,7.990157470703125,-0.042964935302734375,0.005852699279785156,0.044277891516685486
