time,seconds_elapsed,z,y,x
1712257380251592000,0.091592041015625,-0.11748600006103516,0.39073729515075684,-0.0652637779712677
1712257380261592000,0.101592041015625,-0.11569881439208984,0.3810739517211914,-0.06157594919204712
1712257380271592000,0.111592041015625,-0.17541027069091797,0.3892160654067993,-0.08164417743682861
1712257380281592300,0.12159228515625,-0.16983509063720703,0.34632599353790283,-0.11563216149806976
1712257380291592700,0.1315927734375,-0.0799875259399414,0.3109511137008667,-0.09044022858142853
1712257380301592600,0.141592529296875,-0.030678749084472656,0.2919018268585205,-0.06155243515968323
1712257380311592700,0.1515927734375,-0.017244338989257812,0.32071375846862793,0.0009882152080535889
1712257380321592600,0.161592529296875,-0.025168418884277344,0.3823826313018799,0.044082701206207275
1712257380331592700,0.1715927734375,-0.05187702178955078,0.3923029899597168,0.06035196781158447
1712257380341592600,0.181592529296875,-0.13804244995117188,0.381591796875,0.07795387506484985
1712257380351592700,0.1915927734375,-0.1472759246826172,0.39145922660827637,0.09161117672920227
1712257380361592800,0.2015927734375,-0.16583251953125,0.357586145401001,0.08450230956077576
1712257380371592700,0.2115927734375,-0.12445640563964844,0.3190450668334961,0.05713459849357605
1712257380381592800,0.2215927734375,-0.09281730651855469,0.24796366691589355,-0.015640616416931152
1712257380391593000,0.231593017578125,-0.035279273986816406,0.1957705020904541,-0.03766816854476929
1712257380401592800,0.2415927734375,0.021698951721191406,0.1437523365020752,-0.04954850673675537
1712257380411593000,0.251593017578125,0.04211235046386719,0.11605525016784668,-0.05523863434791565
1712257380421592800,0.2615927734375,0.06198692321777344,0.10974812507629395,-0.03563040494918823
1712257380431593000,0.271593017578125,0.052692413330078125,0.10053682327270508,-0.001132875680923462
1712257380441592800,0.2815927734375,0.08147144317626953,0.12360715866088867,0.03266814351081848
1712257380451593000,0.291593017578125,0.016798019409179688,0.10883188247680664,0.020356863737106323
1712257380461592800,0.3015927734375,-0.019188880920410156,0.08470821380615234,0.034438133239746094
1712257380471593000,0.311593017578125,-0.048125267028808594,0.06363892555236816,-0.011817723512649536
1712257380481592800,0.3215927734375,-0.1012582778930664,0.04839205741882324,-0.02404424548149109
1712257380491593000,0.331593017578125,-0.12116813659667969,0.024634361267089844,-0.04921615123748779
1712257380501593000,0.341593017578125,-0.0649261474609375,0.00525355339050293,-0.06503704190254211
1712257380511593000,0.351593017578125,-0.04725170135498047,-0.017768383026123047,-0.014219284057617188
1712257380521593000,0.361593017578125,-0.06080341339111328,-0.021129846572875977,0.002440899610519409
1712257380531593000,0.371593017578125,-0.07921218872070312,-0.00021314620971679688,0.04032602906227112
1712257380541593000,0.381593017578125,-0.06169891357421875,0.042255401611328125,0.05165407061576843
1712257380551593000,0.391593017578125,0.02995014190673828,0.04686713218688965,0.028768867254257202
1712257380561593000,0.401593017578125,0.037662506103515625,0.0066144466400146484,0.0007206499576568604
1712257380571593000,0.411593017578125,0.016286849975585938,-0.013152837753295898,0.009576797485351562
1712257380581593000,0.421593017578125,0.05459308624267578,0.0013027191162109375,-0.005360424518585205
1712257380591593000,0.431593017578125,0.0832672119140625,0.011239767074584961,-0.02300277352333069
1712257380601593000,0.441593017578125,0.042629241943359375,0.011013269424438477,0.012595564126968384
1712257380611593000,0.451593017578125,-0.005208015441894531,0.04683828353881836,0.023798227310180664
1712257380621593000,0.461593017578125,-0.06465435028076172,0.06441283226013184,0.049334824085235596
1712257380631593000,0.471593017578125,-0.09753799438476562,0.0834355354309082,0.010341286659240723
1712257380641593000,0.481593017578125,-0.05599689483642578,0.10647821426391602,0.042793065309524536
1712257380651593000,0.491593017578125,-0.06699275970458984,0.08844327926635742,0.038040608167648315
1712257380661593000,0.501593017578125,-0.0515594482421875,0.07003378868103027,0.028525203466415405
1712257380671593000,0.511593017578125,-0.021760940551757812,0.06115150451660156,-0.00449642539024353
1712257380681593000,0.521593017578125,0.03195381164550781,0.061975955963134766,0.0007132589817047119
1712257380691593000,0.531593017578125,0.06888294219970703,0.03415536880493164,0.02290859818458557
1712257380701593000,0.541593017578125,0.08173656463623047,0.0020525455474853516,-0.002552896738052368
1712257380711593000,0.551593017578125,0.07039260864257812,-0.007610797882080078,-0.07964703440666199
1712257380721593000,0.561593017578125,0.07061004638671875,-0.023105382919311523,-0.0492016077041626
1712257380731593000,0.571593017578125,0.09931087493896484,-0.00887441635131836,-0.004321455955505371
1712257380741593000,0.581593017578125,0.09914207458496094,0.008461475372314453,0.018012404441833496
1712257380751593000,0.591593017578125,0.0727529525756836,0.027746200561523438,-0.034104883670806885
1712257380761593000,0.601593017578125,-0.07076454162597656,-0.0042378902435302734,-0.04398423433303833
1712257380771593000,0.611593017578125,-0.1351613998413086,-0.029590606689453125,-0.02437463402748108
1712257380781593000,0.621593017578125,-0.13736343383789062,0.00048160552978515625,-0.000857919454574585
1712257380791593000,0.631593017578125,-0.11324119567871094,0.01879262924194336,0.05503484606742859
1712257380801593000,0.641593017578125,-0.1083211898803711,0.0087127685546875,0.03088855743408203
1712257380811593000,0.651593017578125,-0.11553287506103516,-0.024749040603637695,0.009761005640029907
1712257380821593000,0.661593017578125,-0.03192424774169922,-0.0671381950378418,-0.020887017250061035
1712257380831593200,0.67159326171875,0.06570243835449219,-0.06969261169433594,-0.04040148854255676
1712257380841593000,0.681593017578125,0.1370067596435547,-0.09134721755981445,-0.02719709277153015
1712257380851593000,0.691593017578125,0.131591796875,-0.10068154335021973,0.010432690382003784
1712257380861593000,0.701593017578125,0.05660438537597656,-0.07128596305847168,0.00840073823928833
1712257380871593200,0.71159326171875,-0.03282451629638672,-0.029738426208496094,-0.00462612509727478
1712257380881593000,0.721593017578125,-0.038440704345703125,0.021325111389160156,-0.0008149445056915283
1712257380891593000,0.731593017578125,-0.039078712463378906,0.02622079849243164,0.0023055076599121094
1712257380901593000,0.741593017578125,0.0011892318725585938,0.03517627716064453,0.02870863676071167
1712257380911593000,0.751593017578125,-0.006144523620605469,0.019135236740112305,0.061458319425582886
1712257380921593000,0.761593017578125,-0.08028221130371094,0.01668524742126465,0.08574563264846802
1712257380931593000,0.771593017578125,-0.1230173110961914,0.04427909851074219,0.06653892993927002
1712257380941593000,0.781593017578125,-0.13432884216308594,0.06109285354614258,0.04966023564338684
1712257380951593000,0.791593017578125,-0.09998893737792969,0.05573153495788574,0.0661361813545227
1712257380961593000,0.801593017578125,-0.0944061279296875,0.04097557067871094,0.015100985765457153
1712257380971593000,0.811593017578125,0.016284942626953125,0.010394573211669922,-0.016437530517578125
1712257380981593000,0.821593017578125,0.09067821502685547,-0.021164894104003906,-0.0709024965763092
1712257380991593000,0.831593017578125,0.13831520080566406,-0.06075000762939453,-0.08597937226295471
1712257381001593000,0.841593017578125,0.1881256103515625,-0.06129169464111328,-0.02332371473312378
1712257381011593000,0.851593017578125,0.20195960998535156,-0.04237794876098633,-0.0016996562480926514
1712257381021593000,0.861593017578125,0.15600872039794922,-0.019055843353271484,-0.02733778953552246
1712257381031593000,0.871593017578125,0.09818363189697266,0.00846409797668457,-0.027707725763320923
1712257381041593000,0.881593017578125,-0.024147987365722656,-0.002977132797241211,-0.04658377170562744
1712257381051593000,0.891593017578125,-0.12009334564208984,0.006829977035522461,0.0022780299186706543
1712257381061593000,0.901593017578125,-0.17051315307617188,0.03813314437866211,0.0146104097366333
1712257381071593000,0.911593017578125,-0.1610736846923828,0.0791926383972168,0.05198743939399719
1712257381081593000,0.921593017578125,-0.12246322631835938,0.08034753799438477,0.07354709506034851
1712257381091593000,0.931593017578125,-0.10977840423583984,-0.022870779037475586,-0.038389116525650024
1712257381101593000,0.941593017578125,-0.07805633544921875,-0.07066750526428223,-0.09913928806781769
1712257381111593000,0.951593017578125,0.01567840576171875,-0.08890604972839355,-0.07024058699607849
1712257381121593000,0.961593017578125,0.039669036865234375,-0.06281137466430664,-0.0004736781120300293
1712257381131593000,0.971593017578125,-0.0060558319091796875,-0.03564286231994629,0.009955495595932007
1712257381141593000,0.981593017578125,0.0149993896484375,0.0331270694732666,0.0191117525100708
1712257381151593000,0.991593017578125,0.04812335968017578,0.07523798942565918,0.008607149124145508
1712257381161593000,1.001593017578125,0.06456565856933594,0.02141714096069336,-0.01738971471786499
1712257381171593000,1.011593017578125,0.05726432800292969,-0.049955129623413086,-0.05549260973930359
1712257381181593000,1.021593017578125,0.006855964660644531,-0.08302640914916992,-0.06690827012062073
1712257381191593000,1.031593017578125,-0.05807781219482422,-0.07971358299255371,-0.026723384857177734
1712257381201593000,1.041593017578125,-0.10632610321044922,-0.03067326545715332,-0.02436929941177368
1712257381211593000,1.051593017578125,-0.09708881378173828,0.01828908920288086,-0.000533372163772583
1712257381221593000,1.061593017578125,-0.051764488220214844,0.011635780334472656,0.050830990076065063
1712257381231593000,1.071593017578125,-0.015869140625,-0.016899585723876953,0.07155096530914307
1712257381241593000,1.081593017578125,-0.008889198303222656,0.007915496826171875,0.04489794373512268
1712257381251593000,1.091593017578125,0.02194690704345703,0.033030033111572266,0.049743473529815674
1712257381261593000,1.101593017578125,0.08638858795166016,0.07462167739868164,0.05895993113517761
1712257381271593000,1.111593017578125,0.11513233184814453,0.06033635139465332,0.050797224044799805
1712257381281593000,1.121593017578125,0.12494087219238281,0.06441903114318848,0.0658036470413208
1712257381291593200,1.13159326171875,0.08705997467041016,0.07497000694274902,0.056274473667144775
1712257381301593000,1.141593017578125,0.03738117218017578,0.07754111289978027,0.013842850923538208
1712257381311593000,1.151593017578125,-0.026580810546875,0.10120582580566406,0.008185505867004395
1712257381321593000,1.161593017578125,-0.0903329849243164,0.07130861282348633,-0.001975327730178833
1712257381331593000,1.171593017578125,-0.13482284545898438,0.06252145767211914,0.03096601366996765
1712257381341593000,1.181593017578125,-0.14321613311767578,0.06988334655761719,0.04388818144798279
1712257381351593000,1.191593017578125,-0.09873771667480469,0.07179427146911621,0.043938785791397095
1712257381361593000,1.201593017578125,-0.01821613311767578,0.04934096336364746,0.0002989768981933594
1712257381371593000,1.211593017578125,0.02134990692138672,-0.03688621520996094,-0.1451648324728012
1712257381381593000,1.221593017578125,0.021925926208496094,-0.17835187911987305,-0.21025224030017853
1712257381391593000,1.231593017578125,0.0478057861328125,-0.2346484661102295,-0.24140116572380066
1712257381401593000,1.241593017578125,0.08713436126708984,-0.20850110054016113,-0.18669511377811432
1712257381411593000,1.251593017578125,0.05173969268798828,-0.13488149642944336,-0.1409890055656433
1712257381421593000,1.261593017578125,-0.024372100830078125,-0.06361508369445801,-0.10679207742214203
1712257381431593000,1.271593017578125,-0.09776020050048828,-0.03440976142883301,-0.07692797482013702
1712257381441593000,1.281593017578125,-0.10847949981689453,-0.03789401054382324,-0.03350633382797241
1712257381451593000,1.291593017578125,-0.06870841979980469,-0.05870842933654785,0.0055058300495147705
1712257381461593000,1.301593017578125,-0.08885574340820312,-0.057489871978759766,0.016354620456695557
1712257381471593000,1.311593017578125,-0.13776779174804688,-0.06321597099304199,-0.019032180309295654
1712257381481593000,1.321593017578125,-0.10289859771728516,-0.04973292350769043,-0.03262209892272949
1712257381491593000,1.331593017578125,-0.015206336975097656,-0.04145216941833496,0.012058764696121216
1712257381501593000,1.341593017578125,0.036904335021972656,-0.019846439361572266,0.09235286712646484
1712257381511593000,1.351593017578125,0.015116691589355469,0.03898334503173828,0.12988758087158203
1712257381521593000,1.361593017578125,-0.058892250061035156,0.10556221008300781,0.17189431190490723
1712257381531593000,1.371593017578125,-0.10848045349121094,0.15346932411193848,0.19919127225875854
1712257381541593000,1.381593017578125,-0.1481456756591797,0.161759614944458,0.16576457023620605
1712257381551593000,1.391593017578125,-0.13978862762451172,0.1193082332611084,0.11014270782470703
1712257381561593000,1.401593017578125,-0.040503501892089844,0.09880685806274414,0.08683168888092041
1712257381571593000,1.411593017578125,0.08752250671386719,0.049721479415893555,0.05513888597488403
1712257381581593000,1.421593017578125,0.15807437896728516,0.024696826934814453,0.044736266136169434
1712257381591593000,1.431593017578125,0.16402912139892578,0.011345863342285156,0.056776970624923706
1712257381601593000,1.441593017578125,0.1005859375,-0.0023152828216552734,0.019910424947738647
1712257381611593000,1.451593017578125,0.0202789306640625,0.003281116485595703,-0.04331818222999573
1712257381621593000,1.461593017578125,0.01869678497314453,0.007353544235229492,-0.02063414454460144
1712257381631593000,1.471593017578125,0.05270576477050781,0.022280216217041016,0.026218891143798828
1712257381641593000,1.481593017578125,0.05774211883544922,0.054981231689453125,0.060834288597106934
1712257381651593000,1.491593017578125,0.0555572509765625,0.05678367614746094,0.023176521062850952
1712257381661593000,1.501593017578125,0.0006990432739257812,0.03443408012390137,-0.02746996283531189
1712257381671593000,1.511593017578125,-0.06597900390625,-0.010236978530883789,-0.05061376094818115
1712257381681593000,1.521593017578125,-0.0942850112915039,-0.0552523136138916,-0.08514904975891113
1712257381691593000,1.531593017578125,-0.14418983459472656,-0.07380819320678711,-0.15259769558906555
1712257381701593000,1.541593017578125,-0.17272281646728516,-0.1110694408416748,-0.16071635484695435
1712257381711593000,1.551593017578125,-0.12497329711914062,-0.10398125648498535,-0.09865224361419678
1712257381721593000,1.561593017578125,-0.036899566650390625,-0.07598471641540527,-0.04539242386817932
1712257381731593000,1.571593017578125,-0.025689125061035156,-0.07572340965270996,-0.020821094512939453
1712257381741593000,1.581593017578125,-0.04341411590576172,-0.05077695846557617,-0.03387734293937683
1712257381751593000,1.591593017578125,-0.042026519775390625,-0.052034616470336914,-0.017844855785369873
1712257381761593000,1.601593017578125,-0.016791343688964844,-0.05765557289123535,-0.06190848350524902
1712257381771593000,1.611593017578125,0.027510643005371094,-0.031731605529785156,-0.015349894762039185
1712257381781593000,1.621593017578125,0.07671642303466797,-0.006009578704833984,0.03645816445350647
1712257381791593000,1.631593017578125,0.07356929779052734,0.0018372535705566406,0.06289595365524292
1712257381801593000,1.641593017578125,-0.0058650970458984375,0.025139331817626953,0.06510433554649353
1712257381811593000,1.651593017578125,-0.044280052185058594,0.05194211006164551,0.050485074520111084
1712257381821593000,1.661593017578125,-0.044094085693359375,0.05129575729370117,-0.007823258638381958
1712257381831593000,1.671593017578125,-0.05334663391113281,0.01902318000793457,0.03153976798057556
1712257381841592800,1.6815927734375,-0.03376483917236328,0.010407209396362305,0.05789858102798462
1712257381851593000,1.691593017578125,0.03136253356933594,0.020853281021118164,0.10729223489761353
1712257381861593000,1.701593017578125,0.019823074340820312,0.0339813232421875,0.08664858341217041
1712257381871593000,1.711593017578125,-0.06600189208984375,0.04964327812194824,0.07412615418434143
1712257381881593000,1.721593017578125,-0.044094085693359375,0.058092355728149414,0.04299449920654297
1712257381891593000,1.731593017578125,0.018546104431152344,0.05685114860534668,0.030946344137191772
1712257381901592800,1.7415927734375,0.10039615631103516,0.007595539093017578,-0.05119878053665161
1712257381911593000,1.751593017578125,0.12944507598876953,-0.05083799362182617,-0.06544226408004761
1712257381921593000,1.761593017578125,0.09353256225585938,-0.10101771354675293,-0.07815751433372498
1712257381931593000,1.771593017578125,0.0406494140625,-0.08117175102233887,-0.0818515419960022
1712257381941592800,1.7815927734375,-0.005154609680175781,-0.03719305992126465,-0.031198114156723022
1712257381951593000,1.791593017578125,-0.053330421447753906,0.04021143913269043,0.009935259819030762
1712257381961593000,1.801593017578125,-0.06540393829345703,0.04038071632385254,0.016502797603607178
1712257381971593000,1.811593017578125,-0.09164237976074219,0.03741812705993652,0.0009779930114746094
1712257381981593000,1.821593017578125,-0.057906150817871094,0.014926910400390625,-0.012955039739608765
1712257381991593000,1.831593017578125,-0.05763530731201172,-0.019742488861083984,-0.03178110718727112
1712257382001593000,1.841593017578125,-0.0956888198852539,-0.04723095893859863,-0.05725252628326416
1712257382011593000,1.851593017578125,-0.14103317260742188,-0.03370237350463867,-0.02196866273880005
1712257382021593000,1.861593017578125,-0.14335918426513672,-0.019861459732055664,-0.046451449394226074
1712257382031593000,1.871593017578125,-0.09309196472167969,-0.015244007110595703,-0.0472484827041626
1712257382041593000,1.881593017578125,-0.01421356201171875,-0.012460947036743164,0.008940786123275757
1712257382051593000,1.891593017578125,0.031070709228515625,-0.02364349365234375,0.01892516016960144
1712257382061593000,1.901593017578125,0.023511886596679688,-0.0150299072265625,0.017280220985412598
1712257382071593000,1.911593017578125,0.05661773681640625,0.008055448532104492,-0.015181481838226318
1712257382081593000,1.921593017578125,0.03240966796875,0.025846242904663086,-0.005246520042419434
1712257382091593000,1.931593017578125,0.020442962646484375,0.011392831802368164,0.021628111600875854
1712257382101593000,1.941593017578125,-0.020008087158203125,-0.02074885368347168,0.0047810375690460205
1712257382111593000,1.951593017578125,-0.06280136108398438,-0.029166221618652344,-0.05983823537826538
1712257382121593000,1.961593017578125,-0.08913612365722656,-0.01256704330444336,-0.04192546010017395
1712257382131593000,1.971593017578125,-0.06764602661132812,-0.0220947265625,-0.026132047176361084
1712257382141593000,1.981593017578125,-0.010329246520996094,-0.033608198165893555,0.025174200534820557
1712257382151593000,1.991593017578125,0.00864410400390625,-0.020864248275756836,-0.013445615768432617
1712257382161593000,2.001593017578125,-0.01308441162109375,-0.008159160614013672,0.0032954514026641846
1712257382171593000,2.011593017578125,-0.03475666046142578,-0.007719516754150391,0.008593052625656128
1712257382181593000,2.021593017578125,0.0011119842529296875,0.03315448760986328,0.020663738250732422
1712257382191593000,2.031593017578125,-0.00127410888671875,0.057114362716674805,0.058582842350006104
1712257382201593000,2.041593017578125,-0.04418754577636719,0.08043527603149414,0.09596505761146545
1712257382211593000,2.051593017578125,-0.0939798355102539,0.09061169624328613,0.08733627200126648
1712257382221593000,2.061593017578125,-0.09561729431152344,0.09011697769165039,0.002139061689376831
1712257382231593000,2.071593017578125,-0.07071304321289062,0.03609466552734375,-0.03732413053512573
1712257382241593000,2.081593017578125,0.011660575866699219,-0.02507472038269043,-0.026973187923431396
1712257382251593000,2.091593017578125,0.005240440368652344,-0.04946494102478027,-0.009588122367858887
1712257382261592800,2.1015927734375,-0.02789306640625,-0.03659844398498535,-0.057959944009780884
1712257382271593000,2.111593017578125,0.0034170150756835938,0.010431528091430664,-0.033163487911224365
1712257382281593000,2.121593017578125,-0.0060825347900390625,-0.004384040832519531,0.003755629062652588
1712257382291593000,2.131593017578125,-0.0061492919921875,-0.0018038749694824219,0.018764466047286987
1712257382301592800,2.1415927734375,0.031951904296875,0.0013897418975830078,0.01904672384262085
1712257382311593000,2.151593017578125,0.03166770935058594,-0.0333859920501709,-0.00724184513092041
1712257382321593000,2.161593017578125,0.024290084838867188,-0.06376457214355469,-0.05964943766593933
1712257382331593000,2.171593017578125,-0.00007724761962890625,-0.1125192642211914,-0.05580049753189087
1712257382341593000,2.181593017578125,0.004002571105957031,-0.11471700668334961,-0.07761187851428986
1712257382351593000,2.191593017578125,0.01975727081298828,-0.09663987159729004,-0.09882578253746033
1712257382361593000,2.201593017578125,0.004204750061035156,-0.10665559768676758,-0.09288591146469116
1712257382371593000,2.211593017578125,-0.004216194152832031,-0.08534765243530273,-0.03403306007385254
1712257382381593000,2.221593017578125,-0.03646278381347656,-0.05721569061279297,-0.002290964126586914
1712257382391593000,2.231593017578125,-0.0805654525756836,-0.027133941650390625,-0.009060531854629517
1712257382401593000,2.241593017578125,-0.1460103988647461,-0.009819507598876953,-0.004110842943191528
1712257382411593000,2.251593017578125,-0.1657552719116211,0.006682634353637695,-0.009050220251083374
1712257382421593000,2.261593017578125,-0.1660909652709961,-0.0208740234375,-0.014588922262191772
1712257382431593000,2.271593017578125,-0.13048267364501953,-0.019726276397705078,0.022135496139526367
1712257382441593000,2.281593017578125,-0.08283519744873047,0.007657766342163086,0.06228536367416382
1712257382451593000,2.291593017578125,-0.0638570785522461,0.06374263763427734,0.09105104207992554
1712257382461593000,2.301593017578125,-0.08518314361572266,0.08722734451293945,0.12096858024597168
1712257382471593000,2.311593017578125,-0.08691883087158203,0.12101936340332031,0.1618945300579071
1712257382481593000,2.321593017578125,-0.035564422607421875,0.12697887420654297,0.16301476955413818
1712257382491593000,2.331593017578125,-0.055848121643066406,0.08197259902954102,0.08222725987434387
1712257382501593000,2.341593017578125,-0.08109569549560547,0.0519258975982666,0.007323563098907471
1712257382511593000,2.351593017578125,-0.05629730224609375,0.032271623611450195,0.007779479026794434
1712257382521593000,2.361593017578125,0.02350616455078125,0.024857521057128906,0.04652261734008789
1712257382531593000,2.371593017578125,0.08412551879882812,0.01286172866821289,0.003355681896209717
1712257382541593000,2.381593017578125,0.046478271484375,-0.00846242904663086,-0.0026786625385284424
1712257382551593000,2.391593017578125,0.01105499267578125,-0.014960050582885742,-0.007050186395645142
1712257382561593000,2.401593017578125,0.05203723907470703,-0.018288612365722656,-0.001261979341506958
1712257382571593000,2.411593017578125,0.11426353454589844,-0.010790109634399414,0.009202659130096436
1712257382581593000,2.421593017578125,0.10916328430175781,-0.018969058990478516,0.02263963222503662
1712257382591593000,2.431593017578125,0.0870828628540039,-0.033553361892700195,-0.044494181871414185
1712257382601593000,2.441593017578125,0.007335662841796875,-0.059564828872680664,-0.0785565972328186
1712257382611593000,2.451593017578125,-0.003021240234375,-0.05678963661193848,-0.13085392117500305
1712257382621593000,2.461593017578125,-0.013239860534667969,-0.04259753227233887,-0.07065621018409729
1712257382631593000,2.471593017578125,-0.0542144775390625,-0.027437210083007812,-0.015757381916046143
1712257382641593000,2.481593017578125,-0.07102584838867188,-0.020331144332885742,-0.008939296007156372
1712257382651593000,2.491593017578125,-0.14533138275146484,-0.03708148002624512,-0.03290644288063049
1712257382661593000,2.501593017578125,-0.14333343505859375,-0.038321733474731445,-0.0008450746536254883
1712257382671593000,2.511593017578125,-0.03864002227783203,-0.055162906646728516,-0.038944125175476074
1712257382681593000,2.521593017578125,0.0753011703491211,-0.08487701416015625,-0.05174785852432251
1712257382691593000,2.531593017578125,0.1172780990600586,-0.1498427391052246,-0.07724472880363464
1712257382701593000,2.541593017578125,0.08003902435302734,-0.1495349407196045,-0.09148512780666351
1712257382711593000,2.551593017578125,0.0235443115234375,-0.1035466194152832,-0.11352531611919403
1712257382721593000,2.561593017578125,-0.05446147918701172,-0.0650174617767334,-0.07700608670711517
1712257382731593000,2.571593017578125,-0.07489395141601562,-0.002941131591796875,-0.00967472791671753
1712257382741593000,2.581593017578125,-0.04955005645751953,0.043859243392944336,0.05335327982902527
1712257382751593000,2.591593017578125,-0.02144908905029297,0.05591082572937012,0.11669263243675232
1712257382761593000,2.601593017578125,-0.038443565368652344,0.04501676559448242,0.1254497468471527
1712257382771593000,2.611593017578125,-0.07433414459228516,0.05956602096557617,0.10890832543373108
1712257382781593000,2.621593017578125,-0.10756301879882812,0.049134254455566406,0.0703023374080658
1712257382791593000,2.631593017578125,-0.10472393035888672,0.026152372360229492,0.028821676969528198
1712257382801593000,2.641593017578125,-0.044487953186035156,-0.006145000457763672,-0.012457489967346191
1712257382811593000,2.651593017578125,0.027495384216308594,-0.04235267639160156,-0.0390324592590332
1712257382821593000,2.661593017578125,0.07991218566894531,-0.04583883285522461,-0.043150126934051514
1712257382831593000,2.671593017578125,0.07696247100830078,-0.038692474365234375,-0.012441635131835938
1712257382841593000,2.681593017578125,0.07165241241455078,0.01618194580078125,0.05195742845535278
1712257382851593000,2.691593017578125,0.06185340881347656,0.08427286148071289,0.051002323627471924
1712257382861593000,2.701593017578125,0.0022430419921875,0.10023951530456543,0.07804769277572632
1712257382871593000,2.711593017578125,-0.023427963256835938,0.07621550559997559,0.06157633662223816
1712257382881593000,2.721593017578125,-0.048979759216308594,0.06605696678161621,0.045204371213912964
1712257382891593000,2.731593017578125,-0.0003185272216796875,0.041553497314453125,0.024155735969543457
1712257382901593000,2.741593017578125,-0.02126598358154297,-0.006227016448974609,0.006031543016433716
1712257382911593000,2.751593017578125,-0.056860923767089844,-0.024222612380981445,-0.05205196142196655
1712257382921593000,2.761593017578125,-0.09016799926757812,-0.08025860786437988,-0.10887940227985382
1712257382931593000,2.771593017578125,-0.06864166259765625,-0.11383342742919922,-0.10304434597492218
1712257382941593000,2.781593017578125,-0.05694580078125,-0.09378290176391602,-0.05820310115814209
1712257382951593000,2.791593017578125,-0.007137298583984375,-0.06095123291015625,-0.0348857045173645
1712257382961593000,2.801593017578125,-0.0364837646484375,-0.010805368423461914,-0.025621265172958374
1712257382971593000,2.811593017578125,-0.1136484146118164,0.04619646072387695,0.043832629919052124
1712257382981593000,2.821593017578125,-0.12821483612060547,0.08988833427429199,0.09350568056106567
1712257382991593000,2.831593017578125,-0.06340312957763672,0.06767606735229492,0.06693953275680542
1712257383001593000,2.841593017578125,0.015901565551757812,0.009279966354370117,0.01936793327331543
1712257383011593000,2.851593017578125,0.001743316650390625,-0.03921103477478027,0.027099013328552246
1712257383021593000,2.861593017578125,-0.08453083038330078,-0.06753134727478027,0.024116843938827515
1712257383031593000,2.871593017578125,-0.05620098114013672,-0.020452260971069336,-0.025597095489501953
1712257383041592800,2.8815927734375,0.058190345764160156,-0.018197298049926758,-0.07379071414470673
1712257383051593000,2.891593017578125,0.1462879180908203,-0.05195260047912598,-0.038767457008361816
1712257383061592800,2.9015927734375,0.19137096405029297,-0.0691993236541748,-0.01396489143371582
1712257383071593000,2.911593017578125,0.1359272003173828,-0.08429336547851562,-0.05064383149147034
1712257383081592800,2.9215927734375,0.03731536865234375,-0.05384373664855957,-0.016137391328811646
1712257383091593000,2.931593017578125,-0.018182754516601562,0.024309873580932617,0.02882283926010132
1712257383101592800,2.9415927734375,-0.025572776794433594,0.08735990524291992,0.08194413781166077
1712257383111593000,2.951593017578125,-0.013455390930175781,0.07728886604309082,0.10265609622001648
1712257383121592800,2.9615927734375,0.010668754577636719,0.047986507415771484,0.07498764991760254
1712257383131593000,2.971593017578125,0.044219017028808594,0.009852170944213867,0.015385717153549194
1712257383141592800,2.9815927734375,-0.02294158935546875,-0.08998346328735352,-0.038884878158569336
1712257383151593000,2.991593017578125,0.029435157775878906,-0.004928112030029297,-0.02226436138153076
1712257383161592800,3.0015927734375,0.05577373504638672,0.052643537521362305,0.03918743133544922
1712257383171593000,3.011593017578125,0.03001880645751953,0.10800480842590332,0.10631972551345825
1712257383181592800,3.0215927734375,-0.052588462829589844,0.12018299102783203,0.07255831360816956
1712257383191593000,3.031593017578125,-0.056075096130371094,0.13175559043884277,0.06863784790039062
1712257383201592800,3.0415927734375,0.045807838439941406,0.1146388053894043,-0.01268923282623291
1712257383211593000,3.051593017578125,0.1331319808959961,0.026477575302124023,-0.01722419261932373
1712257383221593000,3.061593017578125,0.1554412841796875,-0.08424186706542969,-0.018351644277572632
1712257383231593000,3.071593017578125,0.15090084075927734,-0.10211992263793945,-0.04400572180747986
1712257383241592800,3.0815927734375,0.17718791961669922,-0.10945582389831543,-0.06303790211677551
1712257383251593000,3.091593017578125,0.1457958221435547,-0.10402584075927734,-0.0407276451587677
1712257383261593000,3.101593017578125,0.18852901458740234,-0.047940969467163086,0.091997891664505
1712257383271593000,3.111593017578125,0.480438232421875,0.06989836692810059,0.27112486958503723
1712257383281593000,3.121593017578125,0.4374847412109375,0.1079399585723877,0.19459161162376404
1712257383291593000,3.131593017578125,0.4311513900756836,0.09518170356750488,0.04629033803939819
1712257383301592800,3.1415927734375,0.1704549789428711,-0.0174102783203125,-0.09700228273868561
1712257383311593000,3.151593017578125,-0.03895759582519531,-0.07895350456237793,-0.12036468088626862
1712257383321593000,3.161593017578125,-0.11597347259521484,-0.04976224899291992,-0.07979542016983032
1712257383331593000,3.171593017578125,-0.010698318481445312,0.007420539855957031,-0.03990098834037781
1712257383341593000,3.181593017578125,0.29114818572998047,0.07646799087524414,0.23401528596878052
1712257383351593000,3.191593017578125,0.4808950424194336,0.22351646423339844,0.18544548749923706
1712257383361593000,3.201593017578125,0.37878990173339844,0.19235825538635254,0.23705455660820007
1712257383371593000,3.211593017578125,0.32037353515625,0.05517387390136719,0.17927703261375427
1712257383381593000,3.221593017578125,0.30557823181152344,-0.12757205963134766,0.11807811260223389
1712257383391593000,3.231593017578125,0.3871955871582031,0.05385017395019531,0.16308268904685974
1712257383401593000,3.241593017578125,0.8956022262573242,0.09673881530761719,0.47346124053001404
1712257383411930400,3.251930419921875,1.2885570526123047,0.26572370529174805,0.6086970567703247
1712257383421930500,3.261930419921875,1.7977666854858398,0.2640984058380127,0.7716275453567505
1712257383431930400,3.271930419921875,2.0809783935546875,0.0750730037689209,0.2874486744403839
1712257383441930500,3.281930419921875,2.549504280090332,0.04432821273803711,-0.05631926655769348
1712257383451930400,3.291930419921875,2.7579193115234375,-0.04333782196044922,-0.33280709385871887
1712257383461930500,3.301930419921875,2.089541435241699,-0.14080142974853516,-0.4478902816772461
1712257383471930400,3.311930419921875,0.997222900390625,-0.2281186580657959,-0.5136041045188904
1712257383481930500,3.321930419921875,-0.13513946533203125,-0.1666853427886963,-0.3597662150859833
1712257383491930400,3.331930419921875,-1.1137681007385254,-0.03030109405517578,-0.12353183329105377
1712257383501930500,3.341930419921875,-1.3129806518554688,0.004248619079589844,-0.1038309633731842
1712257383511930400,3.351930419921875,-0.6362552642822266,-0.08916401863098145,0.037992820143699646
1712257383521930500,3.361930419921875,0.8677692413330078,-0.20844626426696777,0.23229748010635376
1712257383531930400,3.371930419921875,2.5846633911132812,-0.36464786529541016,0.11047625541687012
1712257383541930500,3.381930419921875,3.8143739700317383,-0.6281790733337402,-0.19342677295207977
1712257383551930400,3.391930419921875,3.902772903442383,-0.7998528480529785,-0.23758549988269806
1712257383561930500,3.401930419921875,2.390207290649414,-1.1536428928375244,-0.4287429451942444
1712257383571930400,3.411930419921875,0.7405595779418945,-0.9802799224853516,-0.09325894713401794
1712257383581930500,3.421930419921875,-0.7001419067382812,-0.4741091728210449,-0.19109612703323364
1712257383591930400,3.431930419921875,-1.8775568008422852,0.010035037994384766,-0.3125227391719818
1712257383601930500,3.441930419921875,-2.5812535285949707,0.10547924041748047,-0.13650740683078766
1712257383611930400,3.451930419921875,-2.4449543952941895,-0.08852052688598633,-0.023866325616836548
1712257383621930500,3.461930419921875,-1.5223116874694824,-0.4308919906616211,-0.13151931762695312
1712257383631930400,3.471930419921875,-0.04395771026611328,-0.7485952377319336,-0.21035021543502808
1712257383641930500,3.481930419921875,0.8821506500244141,-0.990602970123291,0.05947914719581604
1712257383651930400,3.491930419921875,0.5802569389343262,-0.9416770935058594,0.32800233364105225
1712257383661930500,3.501930419921875,-0.42899131774902344,-0.6080942153930664,0.33256885409355164
1712257383671930400,3.511930419921875,-1.4189653396606445,-0.3238530158996582,-0.05559086799621582
1712257383681930500,3.521930419921875,-1.7370972633361816,-0.03948974609375,-0.1028655469417572
1712257383691930600,3.5319306640625,-1.7153630256652832,-0.0455937385559082,-0.08854988217353821
1712257383701930500,3.541930419921875,-1.2951679229736328,-0.19282197952270508,-0.2177940160036087
1712257383711930400,3.551930419921875,-0.4063725471496582,-0.3452587127685547,-0.5472795367240906
1712257383721930500,3.561930419921875,0.3261375427246094,-0.47833776473999023,-0.9275431632995605
1712257383731930600,3.5719306640625,0.7686715126037598,-0.510249137878418,-0.955388069152832
1712257383741930500,3.581930419921875,0.13231277465820312,-0.4799203872680664,-0.5369831323623657
1712257383751930600,3.5919306640625,-1.0369224548339844,-0.3597450256347656,-0.14368146657943726
1712257383761930500,3.601930419921875,-2.045201301574707,-0.26161623001098633,0.17384612560272217
1712257383771930400,3.611930419921875,-2.834829807281494,-0.1362438201904297,0.11423349380493164
1712257383781930500,3.621930419921875,-2.9900155067443848,-0.17248153686523438,0.22897475957870483
1712257383791930600,3.6319306640625,-2.141050100326538,-0.27236175537109375,0.17458707094192505
1712257383801930500,3.641930419921875,-0.39359283447265625,-0.437441349029541,-0.16216492652893066
1712257383811930600,3.6519306640625,0.9056196212768555,-0.570152759552002,-0.37161630392074585
1712257383821930500,3.661930419921875,0.9204411506652832,-0.6645064353942871,-0.5143294334411621
1712257383831930600,3.6719306640625,-0.272519588470459,-0.5321145057678223,-0.46548327803611755
1712257383841930500,3.681930419921875,-1.3915700912475586,-0.25510406494140625,-0.2958803176879883
1712257383851930600,3.6919306640625,-2.082479238510132,0.15569210052490234,0.12938672304153442
1712257383861930500,3.701930419921875,-2.0209219455718994,0.3835783004760742,0.64055997133255
1712257383871930400,3.711930419921875,-1.9683992862701416,0.3527240753173828,0.6118745803833008
1712257383881930500,3.721930419921875,-1.1672229766845703,0.4127225875854492,0.6201916933059692
1712257383891930600,3.7319306640625,-0.7548666000366211,0.11626243591308594,0.21316766738891602
1712257383901930500,3.741930419921875,-0.7831311225891113,-0.18582534790039062,-0.012257933616638184
1712257383911930600,3.7519306640625,-1.0917410850524902,-0.25496482849121094,-0.049393415451049805
1712257383921930500,3.761930419921875,-1.3188972473144531,-0.080810546875,0.1879187822341919
1712257383931930400,3.771930419921875,-1.147515058517456,0.03412055969238281,0.3965374231338501
1712257383941930500,3.781930419921875,-0.7225279808044434,0.14928436279296875,0.6783229112625122
1712257383951930400,3.791930419921875,-0.576392650604248,0.2574796676635742,0.7879512310028076
1712257383961930500,3.801930419921875,-0.7563676834106445,0.26412010192871094,0.6952848434448242
1712257383971930400,3.811930419921875,-0.7726564407348633,0.22106170654296875,0.3695969581604004
1712257383981930500,3.821930419921875,-0.7308669090270996,0.16382122039794922,0.2626481056213379
1712257383991930400,3.831930419921875,-0.8014593124389648,0.08933067321777344,0.30472469329833984
1712257384001930500,3.841930419921875,-0.49725770950317383,0.030763626098632812,0.24035394191741943
1712257384011930400,3.851930419921875,0.1558241844177246,-0.06791973114013672,0.07375550270080566
1712257384021930500,3.861930419921875,0.5596795082092285,-0.15232324600219727,0.00818169116973877
1712257384031930400,3.871930419921875,0.5755581855773926,-0.19744396209716797,-0.09227919578552246
1712257384041930500,3.881930419921875,0.1220088005065918,-0.23184776306152344,-0.2503756880760193
1712257384051930600,3.8919306640625,-0.44954633712768555,-0.27318763732910156,-0.34383726119995117
1712257384061930500,3.901930419921875,-0.8744750022888184,-0.2814321517944336,-0.311523973941803
1712257384071930600,3.9119306640625,-0.9743757247924805,-0.19481897354125977,-0.2149176001548767
1712257384081930500,3.921930419921875,-0.9190731048583984,-0.12970590591430664,-0.1358574628829956
1712257384091930400,3.931930419921875,-0.9170312881469727,-0.19213438034057617,-0.06941229104995728
1712257384101930500,3.941930419921875,-1.0167779922485352,-0.26430273056030273,-0.18501460552215576
1712257384111930600,3.9519306640625,-1.3716716766357422,-0.3474617004394531,-0.11303067207336426
1712257384121930500,3.961930419921875,-1.6983461380004883,-0.3212747573852539,-0.2448154091835022
1712257384131930400,3.971930419921875,-1.8764801025390625,-0.4104423522949219,-0.6529734134674072
1712257384141930500,3.981930419921875,-1.6521377563476562,-0.6213665008544922,-0.5057237148284912
1712257384151930600,3.9919306640625,-1.0072779655456543,-0.5898928642272949,-0.2306206226348877
1712257384161930500,4.001930419921875,-0.4412260055541992,-0.6128220558166504,-0.1041487455368042
1712257384171930400,4.011930419921875,-0.2725973129272461,-0.6952438354492188,0.11730027198791504
1712257384181930500,4.021930419921875,-0.2730226516723633,-0.6570968627929688,0.307508647441864
1712257384191930400,4.031930419921875,-0.23631811141967773,-0.580162525177002,0.20491009950637817
1712257384201930500,4.041930419921875,-0.04015207290649414,-0.49714231491088867,0.3201559782028198
1712257384211930400,4.051930419921875,0.06314468383789062,-0.35561418533325195,0.3594447374343872
1712257384221930500,4.061930419921875,0.1337289810180664,-0.2554969787597656,0.1980108618736267
1712257384231930400,4.071930419921875,0.23740816116333008,-0.17806196212768555,-0.053258657455444336
1712257384241930500,4.081930419921875,0.14875173568725586,-0.16362667083740234,-0.369024395942688
1712257384251930400,4.091930419921875,0.15932273864746094,-0.22859668731689453,-0.6767877340316772
1712257384261930500,4.101930419921875,0.0051059722900390625,-0.4205045700073242,-0.8579525947570801
1712257384271930400,4.111930419921875,-0.3028879165649414,-0.6123037338256836,-0.8708204030990601
1712257384281930500,4.121930419921875,-0.5086522102355957,-0.7708115577697754,-0.5547711253166199
1712257384291930400,4.131930419921875,-0.37696266174316406,-0.8602385520935059,-0.17648005485534668
1712257384301930500,4.141930419921875,-0.21541452407836914,-0.8883256912231445,0.17046892642974854
1712257384311930400,4.151930419921875,0.04509735107421875,-0.8670225143432617,0.2040138840675354
1712257384321930500,4.161930419921875,0.38843822479248047,-0.8787631988525391,-0.06378746032714844
1712257384331930400,4.171930419921875,0.7340354919433594,-0.9036006927490234,-0.2990932762622833
1712257384341930200,4.18193017578125,0.6971302032470703,-0.9528622627258301,-0.5864163637161255
1712257384351930400,4.191930419921875,0.1119842529296875,-0.9857330322265625,-0.7009623050689697
1712257384361930500,4.201930419921875,-0.3042793273925781,-0.9076735973358154,-0.5801448225975037
1712257384371930400,4.211930419921875,-0.38157176971435547,-0.7695057392120361,-0.5810381174087524
1712257384381930500,4.221930419921875,-0.46748924255371094,-0.4410700798034668,-0.06774842739105225
1712257384391930400,4.231930419921875,-0.30735015869140625,-0.3271064758300781,0.26107293367385864
1712257384401930200,4.24193017578125,0.33115482330322266,-0.26706862449645996,0.39362263679504395
1712257384411930400,4.251930419921875,0.838221549987793,-0.4051826000213623,0.31370824575424194
1712257384421930500,4.261930419921875,1.0998964309692383,-0.5586707592010498,0.22517281770706177
1712257384431930400,4.271930419921875,1.1816558837890625,-0.6452388763427734,-0.02680593729019165
1712257384441930200,4.28193017578125,1.1959571838378906,-0.6658978462219238,-0.3479722738265991
1712257384451930400,4.291930419921875,1.1907577514648438,-0.5516881942749023,-0.3250778317451477
1712257384461930500,4.301930419921875,0.9206399917602539,-0.3859596252441406,-0.09902465343475342
1712257384471930400,4.311930419921875,0.3876762390136719,-0.25336742401123047,0.11161446571350098
1712257384481930500,4.321930419921875,-0.048435211181640625,-0.127838134765625,0.10456305742263794
1712257384491930400,4.331930419921875,0.051177978515625,-0.021010637283325195,0.23659291863441467
1712257384501930500,4.341930419921875,0.5841360092163086,-0.039641380310058594,0.4263693690299988
1712257384511930400,4.351930419921875,1.4740304946899414,-0.040831804275512695,0.38852259516716003
1712257384521930500,4.361930419921875,2.2666749954223633,-0.07869243621826172,0.39336127042770386
1712257384531930400,4.371930419921875,2.6074914932250977,-0.12770915031433105,0.4890970289707184
1712257384541930500,4.381930419921875,2.5356760025024414,-0.21942543983459473,0.46531254053115845
1712257384551930400,4.391930419921875,2.0663719177246094,-0.22120928764343262,0.33268502354621887
1712257384561930500,4.401930419921875,1.1024179458618164,-0.09775018692016602,0.2343672513961792
1712257384571930400,4.411930419921875,0.36433982849121094,0.08159804344177246,0.16497832536697388
1712257384581930500,4.421930419921875,0.38791561126708984,0.28748977184295654,0.1993226706981659
1712257384591930400,4.431930419921875,0.6516084671020508,0.28830158710479736,0.2084248661994934
1712257384601930500,4.441930419921875,0.6324186325073242,0.21048259735107422,0.252778023481369
1712257384611930400,4.451930419921875,0.5382776260375977,0.10917007923126221,0.20142608880996704
1712257384621930500,4.461930419921875,-0.00673675537109375,0.0027419328689575195,0.16397973895072937
1712257384631930400,4.471930419921875,-0.5601739883422852,-0.10745930671691895,-0.07447093725204468
1712257384641930500,4.481930419921875,-0.7605133056640625,-0.1196824312210083,-0.2640351355075836
1712257384651930400,4.491930419921875,-0.5709314346313477,-0.06492626667022705,-0.1925211250782013
1712257384661930500,4.501930419921875,0.00030422210693359375,0.03810393810272217,0.008397489786148071
1712257384671930400,4.511930419921875,0.5099544525146484,0.10752975940704346,0.14004290103912354
1712257384681930500,4.521930419921875,0.6296958923339844,0.10023891925811768,0.1680024266242981
1712257384691930400,4.531930419921875,0.4252462387084961,0.06616365909576416,0.14471060037612915
1712257384701930500,4.541930419921875,0.2555074691772461,0.0034493207931518555,0.016165107488632202
1712257384711930400,4.551930419921875,-0.09378623962402344,-0.05756235122680664,-0.0732535868883133
1712257384721930500,4.561930419921875,-0.4039878845214844,-0.10622143745422363,-0.18709054589271545
1712257384731930400,4.571930419921875,-0.5548324584960938,-0.09940791130065918,-0.1957375407218933
1712257384741930500,4.581930419921875,-0.5619287490844727,-0.049756526947021484,-0.15164639055728912
1712257384751930400,4.591930419921875,-0.6178073883056641,-0.11544036865234375,-0.24388408660888672
1712257384761930500,4.601930419921875,-0.5168066024780273,-0.1680983304977417,-0.3179059624671936
1712257384771930400,4.611930419921875,-0.12140560150146484,-0.22547638416290283,-0.2925081253051758
1712257384781930500,4.621930419921875,0.3500175476074219,-0.2121654748916626,-0.13279080390930176
1712257384791930400,4.631930419921875,0.7150335311889648,-0.1294856071472168,0.05839352309703827
1712257384801930500,4.641930419921875,0.6493434906005859,-0.0680093765258789,0.18380416929721832
1712257384811930400,4.651930419921875,0.6464557647705078,-0.050276756286621094,0.187676340341568
1712257384821930500,4.661930419921875,0.37337589263916016,0.12086069583892822,0.1297617405653
1712257384831930400,4.671930419921875,0.32503795623779297,0.1027069091796875,0.0488872230052948
1712257384841930500,4.681930419921875,0.4214496612548828,0.020957469940185547,-0.0409262478351593
1712257384851930400,4.691930419921875,0.3744325637817383,-0.10024023056030273,-0.07254508137702942
1712257384861930500,4.701930419921875,0.08011627197265625,-0.1365952491760254,-0.3212054371833801
1712257384871930400,4.711930419921875,-0.08884143829345703,-0.11983561515808105,-0.2808133065700531
1712257384881930500,4.721930419921875,0.026947021484375,-0.04804253578186035,-0.10080093890428543
1712257384891930400,4.731930419921875,0.20151329040527344,0.03060758113861084,0.03578311204910278
1712257384901930500,4.741930419921875,0.22516155242919922,0.07415425777435303,0.08369477093219757
1712257384911930400,4.751930419921875,0.11077690124511719,0.10329997539520264,0.10456855595111847
1712257384921930500,4.761930419921875,0.04789161682128906,0.12292265892028809,0.11961181461811066
1712257384931930400,4.771930419921875,0.0988016128540039,0.11373066902160645,0.15427973866462708
1712257384941930500,4.781930419921875,0.10783004760742188,0.1167135238647461,0.04089709371328354
1712257384951930400,4.791930419921875,0.05561256408691406,0.07794523239135742,-0.015461772680282593
1712257384961930500,4.801930419921875,0.061394691467285156,0.03126394748687744,-0.042241066694259644
1712257384971930400,4.811930419921875,-0.009569168090820312,-0.005014538764953613,-0.10940029472112656
1712257384981930500,4.821930419921875,-0.09575366973876953,-0.050835251808166504,-0.1970480978488922
1712257384991930400,4.831930419921875,-0.16635894775390625,-0.07557404041290283,-0.2938617467880249
1712257385001930500,4.841930419921875,-0.17341232299804688,-0.02695310115814209,-0.28216707706451416
1712257385011930400,4.851930419921875,-0.04462432861328125,-0.005574703216552734,-0.1947900354862213
1712257385021930500,4.861930419921875,0.017251968383789062,-0.0013778209686279297,-0.078873410820961
1712257385031930400,4.871930419921875,-0.013546943664550781,0.0013145208358764648,-0.03430734574794769
1712257385041930500,4.881930419921875,-0.0960683822631836,-0.02057826519012451,-0.0573887974023819
1712257385051930400,4.891930419921875,-0.2160482406616211,-0.07599890232086182,-0.061477530747652054
1712257385061930500,4.901930419921875,-0.27816295623779297,-0.10246706008911133,-0.07838234305381775
1712257385071930400,4.911930419921875,-0.21839141845703125,-0.0940403938293457,-0.12375885248184204
1712257385081930500,4.921930419921875,-0.20717906951904297,-0.06255137920379639,-0.18776816129684448
1712257385091930400,4.931930419921875,-0.26859188079833984,-0.05058479309082031,-0.2084060162305832
1712257385101930500,4.941930419921875,-0.2923259735107422,-0.0255964994430542,-0.19985000789165497
1712257385111930400,4.951930419921875,-0.227874755859375,0.01603376865386963,-0.16474705934524536
1712257385121930500,4.961930419921875,-0.0701894760131836,0.01311182975769043,-0.04894772171974182
1712257385131930400,4.971930419921875,0.14994430541992188,-0.00033295154571533203,0.019803747534751892
1712257385141930500,4.981930419921875,0.23871326446533203,-0.017887592315673828,0.0313577800989151
1712257385151930400,4.991930419921875,0.1987009048461914,-0.05749773979187012,-0.004028379917144775
1712257385161930500,5.001930419921875,0.07773780822753906,-0.03986072540283203,-0.05974653735756874
1712257385171930400,5.011930419921875,-0.016674041748046875,0.024426579475402832,-0.039970334619283676
1712257385181930500,5.021930419921875,0.008595466613769531,0.06737804412841797,-0.039236102253198624
1712257385191930400,5.031930419921875,0.08403778076171875,0.06310677528381348,-0.005678996443748474
1712257385201930500,5.041930419921875,0.07325458526611328,0.04468095302581787,0.015730731189250946
1712257385211930400,5.051930419921875,0.012331008911132812,0.035074710845947266,0.04472455382347107
1712257385221930500,5.061930419921875,-0.05309772491455078,0.07420897483825684,0.06666428595781326
1712257385231930400,5.071930419921875,-0.28825855255126953,0.09522342681884766,0.08370434492826462
1712257385241930500,5.081930419921875,-0.35576629638671875,0.09436905384063721,0.0543576180934906
1712257385251930400,5.091930419921875,-0.2776632308959961,0.11506021022796631,0.023408420383930206
1712257385261930500,5.101930419921875,-0.11168861389160156,0.08699595928192139,0.006315834820270538
1712257385271930400,5.111930419921875,-0.025396347045898438,0.029040932655334473,-0.06612002104520798
1712257385281930500,5.121930419921875,0.017499923706054688,-0.03930091857910156,-0.10946984589099884
1712257385291930400,5.131930419921875,0.05091094970703125,-0.1010136604309082,-0.17569801211357117
1712257385301930500,5.141930419921875,0.03916740417480469,-0.10463690757751465,-0.16132226586341858
1712257385311930400,5.151930419921875,-0.005764961242675781,-0.0692751407623291,-0.033021390438079834
1712257385321930500,5.161930419921875,0.04521465301513672,0.05873453617095947,0.07333916425704956
1712257385331930400,5.171930419921875,0.13201045989990234,0.1226804256439209,0.12384901195764542
1712257385341930500,5.181930419921875,0.10376262664794922,0.0986555814743042,0.059739887714385986
1712257385351930400,5.191930419921875,0.08025074005126953,0.0030096769332885742,-0.00776807963848114
1712257385361930500,5.201930419921875,0.028097152709960938,-0.04050862789154053,-0.08608509600162506
1712257385371930400,5.211930419921875,-0.03821372985839844,-0.04927051067352295,-0.15623313188552856
1712257385381930500,5.221930419921875,-0.006266593933105469,0.01571834087371826,-0.11408655345439911
1712257385391930400,5.231930419921875,0.1359262466430664,0.08742070198059082,-0.05443711206316948
1712257385401930500,5.241930419921875,0.06276607513427734,0.024413108825683594,-0.0841430202126503
1712257385411930400,5.251930419921875,0.09032249450683594,-0.013108015060424805,-0.14426138997077942
1712257385421930500,5.261930419921875,-0.030388832092285156,-0.08980560302734375,-0.1667957305908203
1712257385431930400,5.271930419921875,-0.13028335571289062,-0.08891546726226807,-0.11121640354394913
1712257385441930500,5.281930419921875,-0.23291492462158203,-0.019205093383789062,-0.031023934483528137
1712257385451930400,5.291930419921875,-0.19690799713134766,0.061347246170043945,0.03436630964279175
1712257385461930500,5.301930419921875,-0.15861892700195312,0.06840550899505615,0.025180473923683167
1712257385471930400,5.311930419921875,-0.21608829498291016,0.03235208988189697,-0.027900908142328262
1712257385481930500,5.321930419921875,-0.19921493530273438,-0.04983627796173096,-0.06119411066174507
1712257385491930400,5.331930419921875,-0.11768150329589844,-0.06503105163574219,-0.0758766457438469
1712257385501930500,5.341930419921875,0.0021486282348632812,-0.03938174247741699,-0.030253611505031586
1712257385511930400,5.351930419921875,0.040671348571777344,-0.011792182922363281,0.008782736957073212
1712257385521930500,5.361930419921875,0.01714324951171875,-0.009162545204162598,0.016226693987846375
1712257385531930400,5.371930419921875,-0.047088623046875,-0.02809739112854004,-0.018895328044891357
1712257385541930200,5.38193017578125,-0.12106990814208984,-0.06533396244049072,-0.10021978616714478
1712257385551930400,5.391930419921875,-0.1092538833618164,-0.07185983657836914,-0.11197233200073242
1712257385561930200,5.40193017578125,-0.05951499938964844,-0.05004703998565674,-0.0587841235101223
1712257385571930400,5.411930419921875,-0.0649566650390625,-0.0036481618881225586,-0.025907397270202637
1712257385581930200,5.42193017578125,-0.09901809692382812,0.011047601699829102,0.01854848861694336
1712257385591930400,5.431930419921875,-0.11373710632324219,0.017649054527282715,0.03936316817998886
1712257385601930200,5.44193017578125,-0.07819080352783203,0.033904194831848145,0.10303010046482086
1712257385611930400,5.451930419921875,0.01995849609375,0.04119515419006348,0.12081300467252731
1712257385621930200,5.46193017578125,0.07774639129638672,0.053964972496032715,0.1401834785938263
1712257385631930400,5.471930419921875,0.045029640197753906,0.06666576862335205,0.09179405868053436
1712257385641930200,5.48193017578125,-0.06165790557861328,0.046930670738220215,0.04228570684790611
1712257385651930400,5.491930419921875,-0.07266807556152344,0.03246426582336426,-0.04710369557142258
1712257385661930200,5.50193017578125,0.04297351837158203,0.05517244338989258,-0.054360684007406235
1712257385671930400,5.511930419921875,0.0913705825805664,0.02625906467437744,-0.0180540531873703
1712257385681930200,5.52193017578125,0.058127403259277344,-0.008654594421386719,-0.01681464910507202
1712257385691930400,5.531930419921875,0.008005142211914062,-0.009484291076660156,-0.030401859432458878
1712257385701930200,5.54193017578125,0.03209400177001953,-0.0006856918334960938,-0.060738179832696915
1712257385711930400,5.551930419921875,0.041937828063964844,0.01706373691558838,0.007349338382482529
1712257385721930500,5.561930419921875,0.016035079956054688,0.024397730827331543,0.06517806649208069
1712257385731930400,5.571930419921875,-0.04808521270751953,0.055206894874572754,0.09199798107147217
1712257385741930200,5.58193017578125,-0.15759754180908203,0.0903167724609375,0.08739195019006729
1712257385751930400,5.591930419921875,-0.18314647674560547,0.07191693782806396,0.013021983206272125
1712257385761930500,5.601930419921875,-0.10565757751464844,0.02917802333831787,-0.047288697212934494
1712257385771930400,5.611930419921875,-0.06653881072998047,-0.0587230920791626,-0.110269695520401
1712257385781930500,5.621930419921875,-0.08754539489746094,-0.11413979530334473,-0.13691402971744537
1712257385791930400,5.631930419921875,-0.09691143035888672,-0.09849286079406738,-0.1282835602760315
1712257385801930200,5.64193017578125,-0.015549659729003906,-0.06962502002716064,-0.09441336989402771
1712257385811930400,5.651930419921875,0.060736656188964844,-0.048879265785217285,-0.07917152345180511
1712257385821930500,5.661930419921875,0.009866714477539062,-0.026831746101379395,-0.0485980249941349
1712257385831930400,5.671930419921875,0.004414558410644531,-0.018792033195495605,0.021494843065738678
1712257385841930500,5.681930419921875,0.0971527099609375,0.022692084312438965,0.03972571715712547
1712257385851930400,5.691930419921875,0.046576499938964844,0.03135788440704346,0.0029291845858097076
1712257385861930500,5.701930419921875,-0.03945446014404297,-0.0030258893966674805,-0.0623384565114975
1712257385871930400,5.711930419921875,-0.08458614349365234,-0.033641934394836426,-0.09536569565534592
1712257385881930500,5.721930419921875,-0.04601001739501953,-0.049422264099121094,-0.10423983633518219
1712257385891930400,5.731930419921875,-0.03162193298339844,-0.03282046318054199,-0.0002952553331851959
1712257385901930500,5.741930419921875,-0.11313152313232422,0.04189348220825195,0.04135484993457794
1712257385911930400,5.751930419921875,-0.14656925201416016,0.10369443893432617,0.05138203501701355
1712257385921930500,5.761930419921875,-0.1078805923461914,0.1256866455078125,0.05061083287000656
1712257385931930400,5.771930419921875,-0.009014129638671875,0.0981825590133667,0.06459967792034149
1712257385941930500,5.781930419921875,0.06844139099121094,0.02451491355895996,0.0911933109164238
1712257385951930400,5.791930419921875,0.04524993896484375,-0.012782573699951172,0.05724252015352249
1712257385961930200,5.80193017578125,0.031495094299316406,0.022461771965026855,0.0049607641994953156
1712257385971930400,5.811930419921875,-0.0014142990112304688,0.007424592971801758,0.008887657895684242
1712257385981930500,5.821930419921875,-0.015142440795898438,0.03055572509765625,0.063448466360569
1712257385991930400,5.831930419921875,-0.040747642517089844,-0.006617307662963867,-0.027165435254573822
1712257386001930200,5.84193017578125,-0.0736703872680664,-0.04073357582092285,-0.09219999611377716
1712257386011930400,5.851930419921875,-0.10437393188476562,-0.057234764099121094,-0.05960684269666672
1712257386021930500,5.861930419921875,-0.11387252807617188,-0.08638978004455566,-0.04799575358629227
1712257386031930400,5.871930419921875,-0.0878286361694336,-0.0729682445526123,-0.04362279549241066
1712257386041930500,5.881930419921875,-0.08122062683105469,-0.0892648696899414,-0.046053312718868256
1712257386051930400,5.891930419921875,-0.05568695068359375,-0.08285772800445557,-0.06760098040103912
1712257386061930500,5.901930419921875,-0.02538013458251953,-0.05002760887145996,0.021014366298913956
1712257386071930400,5.911930419921875,-0.06670188903808594,-0.025352001190185547,0.02371222712099552
1712257386081930500,5.921930419921875,-0.0933828353881836,0.029060959815979004,0.0448644682765007
1712257386091930400,5.931930419921875,-0.07903766632080078,0.053107619285583496,0.07332418859004974
1712257386101930500,5.941930419921875,-0.01930713653564453,0.048958659172058105,0.0611778162419796
1712257386111930400,5.951930419921875,0.025945663452148438,0.03341817855834961,0.042890168726444244
1712257386121930500,5.961930419921875,0.06653594970703125,0.024427413940429688,0.029142875224351883
1712257386131930400,5.971930419921875,0.06678962707519531,0.020777344703674316,0.026463499292731285
1712257386141930500,5.981930419921875,-0.03786182403564453,0.012504220008850098,-0.012402969412505627
1712257386151930400,5.991930419921875,-0.1278705596923828,0.03635263442993164,0.007529886439442635
1712257386161930500,6.001930419921875,-0.16283226013183594,0.019597887992858887,0.04479644447565079
1712257386171930400,6.011930419921875,-0.14783668518066406,0.03322625160217285,0.08601553738117218
1712257386181930500,6.021930419921875,-0.08060359954833984,0.05864059925079346,0.032981209456920624
1712257386191930400,6.031930419921875,-0.05199146270751953,0.0401153564453125,0.009464140981435776
1712257386201930500,6.041930419921875,0.04354095458984375,0.010217666625976562,0.015098493546247482
1712257386211930400,6.051930419921875,0.1152191162109375,0.0014301538467407227,0.012857507914304733
1712257386221930500,6.061930419921875,0.1320486068725586,-0.010830283164978027,0.010005772113800049
1712257386231930400,6.071930419921875,0.1084432601928711,-0.0004960298538208008,0.012222427874803543
1712257386241930500,6.081930419921875,0.10656356811523438,0.028109431266784668,0.047947969287633896
1712257386251930400,6.091930419921875,0.030536651611328125,0.022830843925476074,0.01635981723666191
1712257386261930500,6.101930419921875,-0.00006103515625,0.020239591598510742,-0.02108677476644516
1712257386271930400,6.111930419921875,0.012251853942871094,0.040099143981933594,-0.009673472493886948
1712257386281930500,6.121930419921875,-0.004225730895996094,0.021939754486083984,-0.017249751836061478
1712257386291930400,6.131930419921875,-0.06853294372558594,-0.0324251651763916,-0.04810790717601776
1712257386301930500,6.141930419921875,-0.15192699432373047,-0.05124545097351074,-0.04894033819437027
1712257386311930400,6.151930419921875,-0.20653629302978516,-0.015257835388183594,-0.02577398344874382
1712257386321930500,6.161930419921875,-0.2897920608520508,0.0490497350692749,0.09520700573921204
1712257386331930400,6.171930419921875,-0.25542736053466797,0.10474634170532227,0.15165011584758759
1712257386341930500,6.181930419921875,-0.18012046813964844,0.09950435161590576,0.11111702769994736
1712257386351930400,6.191930419921875,-0.09042930603027344,0.010417699813842773,-0.040057867765426636
1712257386361930500,6.201930419921875,-0.032349586486816406,-0.10508322715759277,-0.14532828330993652
1712257386371930400,6.211930419921875,0.0057010650634765625,-0.22359609603881836,-0.2124805748462677
1712257386381930500,6.221930419921875,0.03309345245361328,-0.23392975330352783,-0.22080233693122864
1712257386391930400,6.231930419921875,0.10763931274414062,-0.16164231300354004,-0.13811427354812622
1712257386401930500,6.241930419921875,0.19403839111328125,-0.0551377534866333,-0.036758098751306534
1712257386411930400,6.251930419921875,0.15402793884277344,0.017932415008544922,0.04264935106039047
1712257386421930500,6.261930419921875,0.03814411163330078,0.056211233139038086,0.04640095680952072
1712257386431930400,6.271930419921875,-0.005284309387207031,0.0722050666809082,0.10193060338497162
1712257386441930500,6.281930419921875,0.02583599090576172,0.03631925582885742,0.09001009166240692
1712257386451930400,6.291930419921875,0.025795936584472656,0.024573087692260742,0.07590601593255997
1712257386461930500,6.301930419921875,0.02098846435546875,0.022310853004455566,0.05155797302722931
1712257386471930400,6.311930419921875,0.016391754150390625,0.03335988521575928,0.03914010152220726
1712257386481930500,6.321930419921875,-0.10519027709960938,0.009229660034179688,0.05253974720835686
1712257386491930400,6.331930419921875,-0.1978292465209961,0.024733543395996094,0.023372985422611237
1712257386501930500,6.341930419921875,-0.17552947998046875,0.056925296783447266,0.02611599862575531
1712257386511930400,6.351930419921875,-0.09348487854003906,0.053775668144226074,0.03360475227236748
1712257386521930200,6.36193017578125,-0.03081798553466797,0.04696989059448242,0.0884227454662323
1712257386531930400,6.371930419921875,0.06523990631103516,0.040830016136169434,0.0635077953338623
1712257386541930500,6.381930419921875,0.12054920196533203,0.03254210948944092,0.043059613555669785
1712257386551930400,6.391930419921875,0.10174179077148438,-0.005006074905395508,-0.013106368482112885
1712257386561930500,6.401930419921875,-0.01750946044921875,-0.04555809497833252,-0.09171602129936218
1712257386571930400,6.411930419921875,-0.10324573516845703,-0.057436585426330566,-0.1219172477722168
1712257386581930500,6.421930419921875,-0.1842489242553711,-0.08582782745361328,-0.11007877439260483
1712257386591930400,6.431930419921875,-0.17231369018554688,-0.06658852100372314,-0.046741366386413574
1712257386601930500,6.441930419921875,-0.13926410675048828,0.014685273170471191,0.0018538124859333038
1712257386611930400,6.451930419921875,-0.051232337951660156,0.04613971710205078,0.041870396584272385
1712257386621930500,6.461930419921875,-0.0013341903686523438,0.004919171333312988,-0.010090451687574387
1712257386631930400,6.471930419921875,0.03194713592529297,-0.05615973472595215,-0.052282270044088364
1712257386641930500,6.481930419921875,0.055619239807128906,-0.10752463340759277,-0.09377587586641312
1712257386651930400,6.491930419921875,0.0025129318237304688,-0.09823858737945557,-0.08403927087783813
1712257386661930500,6.501930419921875,0.057105064392089844,-0.03366506099700928,-0.016306187957525253
1712257386671930400,6.511930419921875,0.04231071472167969,0.0019572973251342773,0.07451799511909485
1712257386681930200,6.52193017578125,-0.02505970001220703,0.039505958557128906,0.04693696275353432
1712257386691930400,6.531930419921875,-0.030134201049804688,0.04330265522003174,-0.018463660031557083
1712257386701930500,6.541930419921875,0.017547607421875,-0.008376479148864746,-0.0861222892999649
1712257386711930400,6.551930419921875,0.06039237976074219,-0.07657015323638916,-0.022230098024010658
1712257386721930500,6.561930419921875,0.11508369445800781,-0.07947432994842529,0.002032894641160965
1712257386731930400,6.571930419921875,0.1194448471069336,-0.048595428466796875,0.01872691512107849
1712257386741930200,6.58193017578125,0.020964622497558594,-0.02546370029449463,-0.0004831068217754364
1712257386751930400,6.591930419921875,-0.046225547790527344,-0.005562782287597656,-0.03316584601998329
1712257386761930500,6.601930419921875,-0.0940999984741211,-0.015216827392578125,0.002051234245300293
1712257386771930400,6.611930419921875,-0.0964813232421875,0.0158236026763916,0.003848055377602577
1712257386781930200,6.62193017578125,-0.051003456115722656,0.03742492198944092,0.00487527996301651
1712257386791930400,6.631930419921875,-0.08939361572265625,-0.010056853294372559,-0.03731456398963928
1712257386801930200,6.64193017578125,-0.10396003723144531,-0.06653594970703125,-0.08077427744865417
1712257386811930400,6.651930419921875,-0.008569717407226562,-0.07421767711639404,-0.07493716478347778
1712257386821930200,6.66193017578125,0.041100502014160156,-0.061588287353515625,-0.05536496266722679
1712257386831930400,6.671930419921875,0.01903057098388672,0.0032854080200195312,0.020677899941802025
1712257386841930200,6.68193017578125,-0.024183273315429688,0.0445706844329834,0.0818178728222847
1712257386851930400,6.691930419921875,-0.09812450408935547,0.09582221508026123,0.07477861642837524
1712257386861930200,6.70193017578125,-0.13826656341552734,0.11454784870147705,0.04507825896143913
1712257386871930400,6.711930419921875,-0.06331157684326172,0.10129046440124512,0.07890008389949799
1712257386881930200,6.72193017578125,-0.019461631774902344,0.1118919849395752,0.11884259432554245
1712257386891930400,6.731930419921875,-0.04498767852783203,0.08391106128692627,0.0982820987701416
1712257386901930200,6.74193017578125,-0.092041015625,0.041470885276794434,0.008687090128660202
1712257386911930400,6.751930419921875,-0.04815387725830078,-0.03428995609283447,-0.05052812024950981
1712257386921930200,6.76193017578125,0.043303489685058594,-0.08452761173248291,-0.0566551499068737
1712257386931930400,6.771930419921875,0.04572010040283203,-0.065460205078125,0.018673503771424294
1712257386941930200,6.78193017578125,-0.002315521240234375,-0.03598153591156006,0.013714855536818504
1712257386951930400,6.791930419921875,-0.026548385620117188,0.013337850570678711,-0.03316044062376022
1712257386961930500,6.801930419921875,-0.0028171539306640625,-0.004776954650878906,-0.05832637473940849
1712257386971930400,6.811930419921875,0.04723930358886719,-0.06592464447021484,-0.08165507763624191
1712257386981930500,6.821930419921875,0.08759307861328125,-0.13123667240142822,-0.07746361941099167
1712257386991930400,6.831930419921875,0.010386466979980469,-0.10675466060638428,-0.013178118504583836
1712257387001930500,6.841930419921875,-0.08360862731933594,-0.034247636795043945,-0.0156681090593338
1712257387011930400,6.851930419921875,-0.12946319580078125,0.048956871032714844,0.020632455125451088
1712257387021930500,6.861930419921875,-0.08873462677001953,0.05839419364929199,0.07742935419082642
1712257387031930400,6.871930419921875,-0.09332942962646484,0.038268327713012695,0.11297375708818436
1712257387041930500,6.881930419921875,-0.11474895477294922,0.011293292045593262,0.07080284506082535
1712257387051930400,6.891930419921875,-0.033344268798828125,-0.005445122718811035,0.0044194236397743225
1712257387061930500,6.901930419921875,-0.02392101287841797,-0.026208996772766113,-0.006968085654079914
1712257387071930400,6.911930419921875,-0.021627426147460938,-0.06638205051422119,-0.037450097501277924
1712257387081930500,6.921930419921875,-0.0121612548828125,-0.07299959659576416,-0.04323679208755493
1712257387091930400,6.931930419921875,0.011659622192382812,-0.04842698574066162,-0.015630844980478287
1712257387101930500,6.941930419921875,0.009143829345703125,0.012053370475769043,0.08387269079685211
1712257387111930400,6.951930419921875,-0.029150962829589844,0.06706500053405762,0.11845680326223373
1712257387121930500,6.961930419921875,-0.07927703857421875,0.09744715690612793,0.07606770843267441
1712257387131930400,6.971930419921875,-0.026273727416992188,0.0814507007598877,0.03834690898656845
1712257387141930500,6.981930419921875,0.010091781616210938,0.007398366928100586,-0.007220963016152382
1712257387151930400,6.991930419921875,0.008085250854492188,-0.0304337739944458,-0.0568196177482605
1712257387161930500,7.001930419921875,-0.022747039794921875,-0.03669250011444092,-0.08077727258205414
1712257387171930400,7.011930419921875,0.032517433166503906,0.022162199020385742,-0.031672101467847824
1712257387181930500,7.021930419921875,0.09495925903320312,0.07148170471191406,-0.00499400869011879
1712257387191930400,7.031930419921875,0.1048898696899414,0.07211506366729736,-0.0005384907126426697
1712257387201930200,7.04193017578125,0.20597267150878906,0.03359198570251465,0.047064460813999176
1712257387211930400,7.051930419921875,0.1202688217163086,0.03356325626373291,0.027054667472839355
1712257387221930200,7.06193017578125,0.020239830017089844,0.009359002113342285,-0.0033393017947673798
1712257387231930400,7.071930419921875,-0.03682136535644531,0.033653974533081055,-0.07722900807857513
1712257387241930200,7.08193017578125,-0.04374217987060547,0.013142585754394531,-0.08513642102479935
1712257387251930400,7.091930419921875,-0.07240867614746094,0.015169262886047363,-0.10011866688728333
1712257387261930200,7.10193017578125,-0.09627246856689453,0.02190983295440674,-0.07147475332021713
1712257387271930400,7.111930419921875,-0.036126136779785156,0.02762436866760254,0.004478169605135918
1712257387281930200,7.12193017578125,-0.04995250701904297,0.051279544830322266,0.04456007853150368
1712257387291930400,7.131930419921875,-0.14003372192382812,0.06118965148925781,0.027801688760519028
1712257387301930200,7.14193017578125,-0.19385051727294922,0.026279449462890625,0.01395706832408905
1712257387311930400,7.151930419921875,-0.21203041076660156,0.026267290115356445,-0.010071604512631893
1712257387321930500,7.161930419921875,-0.13494586944580078,-0.014346837997436523,-0.04327340051531792
1712257387331930400,7.171930419921875,-0.005808830261230469,-0.05430150032043457,-0.08843925595283508
1712257387341930500,7.181930419921875,0.07749462127685547,-0.1332688331604004,-0.09075754880905151
1712257387351930400,7.191930419921875,0.0888814926147461,-0.15912628173828125,-0.08614633232355118
1712257387361930200,7.20193017578125,0.02852916717529297,-0.14471054077148438,-0.09276632964611053
1712257387371930400,7.211930419921875,-0.0556793212890625,-0.11155390739440918,-0.09837416559457779
1712257387381930500,7.221930419921875,-0.12080669403076172,-0.05646967887878418,-0.06281761825084686
1712257387391930400,7.231930419921875,-0.09027385711669922,-0.0032242536544799805,0.037275105714797974
1712257387401930500,7.241930419921875,-0.016735076904296875,-0.006992459297180176,0.10971030592918396
1712257387411930400,7.251930419921875,-0.08679866790771484,0.06556689739227295,-0.07213343679904938
1712257387421930500,7.261930419921875,-0.11565113067626953,0.011150002479553223,-0.06330467760562897
1712257387431930400,7.271930419921875,-0.0316925048828125,-0.11649346351623535,0.09514255821704865
1712257387441930500,7.281930419921875,0.01598358154296875,-0.05801212787628174,-0.04956241697072983
1712257387451930400,7.291930419921875,-0.05850982666015625,0.005581259727478027,-0.10006079077720642
1712257387461930500,7.301930419921875,-0.07295799255371094,0.039563655853271484,-0.041689712554216385
1712257387471930400,7.311930419921875,0.025211334228515625,0.027603626251220703,0.013183597475290298
1712257387481930500,7.321930419921875,0.037072181701660156,0.013783097267150879,0.02738010324537754
1712257387491930400,7.331930419921875,0.024979591369628906,-0.021535515785217285,-0.011516615748405457
1712257387501930500,7.341930419921875,-0.03497028350830078,0.01964390277862549,0.020270269364118576
1712257387511930400,7.351930419921875,-0.04689598083496094,0.08647799491882324,0.0766720324754715
1712257387521930500,7.361930419921875,0.013231277465820312,0.11145615577697754,0.07102401554584503
1712257387531930400,7.371930419921875,0.018497467041015625,0.06354391574859619,0.07038097083568573
1712257387541930500,7.381930419921875,0.019158363342285156,0.01951158046722412,0.08865808695554733
1712257387551930400,7.391930419921875,0.02937793731689453,-0.017238974571228027,0.0440237782895565
1712257387561930500,7.401930419921875,0.07780838012695312,-0.0008159875869750977,0.03538922220468521
1712257387571930400,7.411930419921875,0.025572776794433594,0.00655972957611084,0.04891447722911835
1712257387581930500,7.421930419921875,-0.081817626953125,0.052698612213134766,0.04729849100112915
1712257387591930400,7.431930419921875,-0.09097862243652344,0.08655822277069092,0.110670305788517
1712257387601930500,7.441930419921875,-0.04018974304199219,0.10079169273376465,0.1001766100525856
1712257387611930400,7.451930419921875,-0.013163566589355469,0.04710531234741211,0.05663337931036949
1712257387621930500,7.461930419921875,-0.04590797424316406,-0.02613544464111328,0.0011743776267394423
1712257387631930400,7.471930419921875,-0.04761028289794922,-0.06783246994018555,-0.06485701352357864
1712257387641930500,7.481930419921875,-0.08307361602783203,-0.07480955123901367,-0.1336008757352829
1712257387651930400,7.491930419921875,-0.05179309844970703,-0.07318258285522461,-0.12503179907798767
1712257387661930500,7.501930419921875,0.012642860412597656,-0.08413243293762207,-0.12944909930229187
1712257387671930400,7.511930419921875,0.04085350036621094,-0.10553455352783203,-0.12552206218242645
1712257387681930500,7.521930419921875,0.049643516540527344,-0.10166645050048828,-0.12261844426393509
1712257387691930400,7.531930419921875,0.022455215454101562,-0.09506356716156006,-0.11646700650453568
1712257387701930500,7.541930419921875,-0.014264106750488281,-0.122170090675354,-0.08826296031475067
1712257387711930400,7.551930419921875,-0.04384326934814453,-0.09876155853271484,-0.048140935599803925
1712257387721930500,7.561930419921875,-0.08300399780273438,-0.0298234224319458,-0.014144700020551682
1712257387731930400,7.571930419921875,-0.06928634643554688,0.0285186767578125,0.021000264212489128
1712257387741930500,7.581930419921875,-0.11267852783203125,0.0443950891494751,0.01850004494190216
1712257387751930400,7.591930419921875,-0.1821117401123047,0.008526802062988281,-0.014917805790901184
1712257387761930500,7.601930419921875,-0.2706108093261719,-0.022957682609558105,-0.013577569276094437
1712257387771930400,7.611930419921875,-0.25391101837158203,-0.010600805282592773,0.02620302140712738
1712257387781930500,7.621930419921875,-0.20147323608398438,0.016976594924926758,0.0336790531873703
1712257387791930400,7.631930419921875,-0.1323108673095703,0.03988909721374512,0.06534881889820099
1712257387801930500,7.641930419921875,-0.19933700561523438,-0.02005469799041748,0.07660868763923645
1712257387811930400,7.651930419921875,-0.10115528106689453,-0.06087684631347656,0.09903576970100403
1712257387821930500,7.661930419921875,0.03265571594238281,-0.04531514644622803,0.09090492129325867
1712257387831930400,7.671930419921875,0.17835712432861328,-0.03415417671203613,0.08312763273715973
1712257387841930500,7.681930419921875,0.17809486389160156,-0.03298795223236084,0.07467172294855118
1712257387851930400,7.691930419921875,0.17313385009765625,0.015674352645874023,0.13496728241443634
1712257387861930500,7.701930419921875,0.14182758331298828,0.07398772239685059,0.18183664977550507
1712257387871930400,7.711930419921875,0.0698843002319336,0.12000763416290283,0.20109336078166962
1712257387881930500,7.721930419921875,-0.004189491271972656,0.14799213409423828,0.1790410429239273
1712257387891930400,7.731930419921875,-0.08975887298583984,0.14010918140411377,0.15402217209339142
1712257387901930500,7.741930419921875,-0.1485004425048828,0.06041073799133301,0.08293350040912628
1712257387911930400,7.751930419921875,-0.16155433654785156,0.006132841110229492,0.012126564979553223
1712257387921930500,7.761930419921875,-0.15317916870117188,-0.042736053466796875,0.004725277423858643
1712257387931930400,7.771930419921875,-0.11167335510253906,-0.029813528060913086,0.000734817236661911
1712257387941930500,7.781930419921875,-0.06329822540283203,0.03972017765045166,0.0076142773032188416
1712257387951930400,7.791930419921875,0.013741493225097656,0.05688345432281494,0.028047993779182434
1712257387961930200,7.80193017578125,0.07874011993408203,0.07438671588897705,0.01534428820014
1712257387971930400,7.811930419921875,0.04798603057861328,0.07023811340332031,-0.020497646182775497
1712257387981930200,7.82193017578125,0.10586929321289062,0.04903566837310791,-0.025685936212539673
1712257387991930400,7.831930419921875,0.13983821868896484,0.025291919708251953,-0.06147972121834755
1712257388001930200,7.84193017578125,0.09944915771484375,-0.02893650531768799,-0.15639746189117432
1712257388011930400,7.851930419921875,0.018213272094726562,-0.10887813568115234,-0.23159058392047882
1712257388021930200,7.86193017578125,0.02532196044921875,-0.14459049701690674,-0.2629168629646301
1712257388031930400,7.871930419921875,-0.010992050170898438,-0.14280617237091064,-0.2590554356575012
1712257388041930200,7.88193017578125,-0.0738992691040039,-0.11341297626495361,-0.19393032789230347
1712257388051930400,7.891930419921875,-0.10335826873779297,-0.07164299488067627,-0.09227868914604187
1712257388061930200,7.90193017578125,-0.10642623901367188,0.0010541677474975586,-0.037545233964920044
1712257388071930400,7.911930419921875,-0.0877237319946289,0.0008755922317504883,-0.053879767656326294
1712257388081930200,7.92193017578125,-0.12634658813476562,0.0048389434814453125,-0.035186540335416794
1712257388091930400,7.931930419921875,-0.10023021697998047,-0.02516043186187744,-0.043278586119413376
1712257388101930200,7.94193017578125,-0.023855209350585938,-0.05264425277709961,-0.026021016761660576
1712257388111930400,7.951930419921875,0.054775238037109375,-0.024394989013671875,0.013187835924327374
1712257388121930200,7.96193017578125,0.08317279815673828,0.006007075309753418,0.07488544285297394
1712257388131930400,7.971930419921875,0.04469776153564453,0.047547101974487305,0.12802988290786743
1712257388141930200,7.98193017578125,0.023146629333496094,0.095428466796875,0.15853914618492126
1712257388151930400,7.991930419921875,-0.022144317626953125,0.1207507848739624,0.12299969792366028
