time,seconds_elapsed,z,y,x
1712257647941888500,0.033888427734375,0,0,0
1712257647951889000,0.043888916015625,0.03841114044189453,-0.00042819976806640625,0.03609085828065872
1712257647961889300,0.05388916015625,0.2937350273132324,-0.055023193359375,0.15770865976810455
1712257647971890700,0.063890625,0.16674280166625977,0.03700876235961914,0.07305935025215149
1712257647981892600,0.073892578125,-0.29338884353637695,0.034583091735839844,-0.0002980045974254608
1712257647991895600,0.0838955078125,-0.4169173240661621,-0.01485443115234375,0.19313500821590424
1712257648001899300,0.093899169921875,-0.26081228256225586,-0.08530282974243164,0.30872878432273865
1712257648011904000,0.103904052734375,-0.1708831787109375,-0.1827397346496582,0.26760122179985046
1712257648021909800,0.11390966796875,-0.1695866584777832,-0.26428842544555664,0.3021075129508972
1712257648031916500,0.12391650390625,-0.1186227798461914,-0.2592639923095703,0.36254391074180603
1712257648041924000,0.133924072265625,-0.043324947357177734,-0.27005434036254883,0.24566000699996948
1712257648051932400,0.143932373046875,-0.03315162658691406,-0.21051692962646484,0.04544749855995178
1712257648061941500,0.15394140625,0.0272216796875,-0.08880472183227539,-0.10863706469535828
1712257648071950800,0.163950927734375,-0.08392715454101562,-0.03556632995605469,-0.12043054401874542
1712257648081960700,0.173960693359375,-0.05703401565551758,0.08387231826782227,0.02901536226272583
1712257648091970600,0.183970458984375,-0.05531740188598633,0.16527175903320312,0.18390005826950073
1712257648101979600,0.193979736328125,-0.08330917358398438,0.08252286911010742,0.16034653782844543
1712257648111985400,0.2039853515625,-0.04977703094482422,-0.001277923583984375,0.12459596991539001
1712257648121991200,0.2139912109375,-0.011851310729980469,-0.03686332702636719,0.15793296694755554
1712257648131996700,0.22399658203125,0.19995927810668945,0.022128582000732422,0.1839471161365509
1712257648142002400,0.23400244140625,0.4714622497558594,0.05962514877319336,0.18836453557014465
1712257648152008200,0.24400830078125,0.6113958358764648,0.0882253646850586,0.11995302140712738
1712257648162013700,0.254013671875,0.6135015487670898,0.1024317741394043,0.04462933540344238
1712257648172019500,0.26401953125,0.4372525215148926,0.09843778610229492,-0.009697288274765015
1712257648182025200,0.274025146484375,0.34563589096069336,0.1237344741821289,-0.20594516396522522
1712257648192030700,0.28403076171875,0.362119197845459,0.12259101867675781,-0.33521974086761475
1712257648202036500,0.294036376953125,0.35802793502807617,0.12374258041381836,-0.23479695618152618
1712257648212042200,0.304042236328125,0.2876720428466797,0.08101367950439453,-0.11334914714097977
1712257648222047700,0.3140478515625,0.1892070770263672,0.04295778274536133,-0.07645818591117859
1712257648232053500,0.324053466796875,0.16867828369140625,0.015141010284423828,-0.10736820101737976
1712257648242059300,0.334059326171875,0.2740769386291504,0.006884574890136719,-0.07472314685583115
1712257648252064800,0.344064697265625,0.4093050956726074,-0.010729312896728516,-0.06973951309919357
1712257648262070500,0.354070556640625,0.5003519058227539,0.045060157775878906,-0.07752974331378937
1712257648272076300,0.364076171875,0.4421567916870117,0.03230142593383789,0.015525499358773232
1712257648282081800,0.374081787109375,0.38763904571533203,0.07857990264892578,0.04394179955124855
1712257648292087600,0.384087646484375,0.341306209564209,0.07982730865478516,-0.0700940415263176
1712257648302093300,0.39409326171875,0.19069576263427734,0.05627584457397461,-0.020558420568704605
1712257648312098800,0.404098876953125,0.1379237174987793,0.07947540283203125,0.03540108725428581
1712257648322104600,0.4141044921875,0.16641569137573242,0.09227180480957031,0.05054888129234314
1712257648332110300,0.4241103515625,0.1902174949645996,0.0808568000793457,0.034658193588256836
1712257648342115800,0.43411572265625,0.1160283088684082,0.027116775512695312,0.10713406652212143
1712257648352121600,0.44412158203125,-0.0544891357421875,0.016745567321777344,0.15219926834106445
1712257648362127400,0.45412744140625,-0.0722513198852539,0.0028777122497558594,0.09699483215808868
1712257648372132900,0.4641328125,-0.02465057373046875,-0.0007791519165039062,0.018432632088661194
1712257648382138600,0.474138671875,-0.03929853439331055,-0.050861358642578125,-0.05142540484666824
1712257648392144400,0.484144287109375,-0.06343984603881836,-0.061930179595947266,-0.06766754388809204
1712257648402150100,0.494150146484375,-0.04534196853637695,-0.020763397216796875,-0.026907451450824738
1712257648412155600,0.50415576171875,0.0615081787109375,-0.013351917266845703,-0.08103236556053162
1712257648422161400,0.514161376953125,0.22775793075561523,-0.006696224212646484,-0.18349522352218628
1712257648432167200,0.524167236328125,0.2751321792602539,0.0402073860168457,-0.17888134717941284
1712257648442172700,0.534172607421875,0.19699478149414062,0.046320438385009766,-0.1615394949913025
1712257648452178400,0.544178466796875,0.06612491607666016,0.007731914520263672,-0.15410558879375458
1712257648462184200,0.55418408203125,-0.04173898696899414,-0.03677511215209961,-0.13296371698379517
1712257648472189700,0.564189697265625,-0.12312126159667969,-0.05336952209472656,-0.11774322390556335
1712257648482195500,0.574195556640625,-0.2503166198730469,0.010554313659667969,-0.08904481679201126
1712257648492201200,0.584201171875,-0.35338544845581055,0.05633354187011719,-0.008243188261985779
1712257648502206700,0.594206787109375,-0.27821874618530273,0.04736804962158203,0.06378258764743805
1712257648512212500,0.60421240234375,-0.17337369918823242,0.05006599426269531,0.11783438920974731
1712257648522218200,0.61421826171875,-0.10947847366333008,0.054343223571777344,0.12561342120170593
1712257648532223700,0.6242236328125,-0.03769350051879883,0.011927604675292969,0.04979422688484192
1712257648542229500,0.6342294921875,-0.018496990203857422,-0.02084493637084961,-0.005203649401664734
1712257648552235300,0.6442353515625,-0.055370330810546875,-0.06806039810180664,-0.07312685251235962
1712257648562240800,0.65424072265625,-0.10512161254882812,-0.05397510528564453,-0.09336720407009125
1712257648572246500,0.66424658203125,-0.1209263801574707,-0.012023448944091797,-0.029274284839630127
1712257648582252300,0.674252197265625,-0.10846138000488281,0.03896617889404297,0.0373988151550293
1712257648592257800,0.6842578125,-0.08214664459228516,0.027968406677246094,0.08434244990348816
1712257648602263600,0.694263671875,-0.0747833251953125,-0.030330657958984375,0.08439263701438904
1712257648612269300,0.704269287109375,-0.11890316009521484,-0.06937932968139648,0.06264150142669678
1712257648622274800,0.71427490234375,-0.15257787704467773,-0.056386470794677734,0.03372350335121155
1712257648632280600,0.724280517578125,-0.1760396957397461,-0.03451251983642578,-0.01210843026638031
1712257648642286300,0.734286376953125,-0.16602468490600586,0.010378360748291016,-0.08012638986110687
1712257648652291800,0.744291748046875,-0.09501361846923828,0.10637998580932617,-0.12359834462404251
1712257648662297600,0.754297607421875,-0.0394892692565918,0.2339630126953125,-0.14794152975082397
1712257648672303400,0.764303466796875,0.019555091857910156,0.2608504295349121,-0.19573035836219788
1712257648682308900,0.774308837890625,0.05887937545776367,0.17422771453857422,-0.11228331178426743
1712257648692314600,0.784314697265625,0.012842655181884766,0.1267261505126953,-0.022486120462417603
1712257648702320400,0.7943203125,-0.046799659729003906,0.06620502471923828,0.045992061495780945
1712257648712326000,0.804325927734375,-0.12995052337646484,-0.04401731491088867,0.10839769244194031
1712257648722331600,0.81433154296875,-0.20830440521240234,-0.11797618865966797,0.1411951780319214
1712257648732337400,0.82433740234375,-0.2632770538330078,-0.13728761672973633,0.1411740481853485
1712257648742343200,0.83434326171875,-0.25720930099487305,-0.12217283248901367,0.14312097430229187
1712257648752348700,0.8443486328125,-0.21880531311035156,-0.08794975280761719,0.11836376786231995
1712257648762354400,0.8543544921875,-0.17156362533569336,-0.007296085357666016,0.070990651845932
1712257648772360200,0.864360107421875,-0.10534858703613281,0.08512735366821289,0.0755574107170105
1712257648782365700,0.87436572265625,-0.10521602630615234,0.09494829177856445,0.055466532707214355
1712257648792371500,0.884371337890625,-0.11372947692871094,0.05197715759277344,-0.0593375563621521
1712257648802377200,0.894377197265625,-0.0693511962890625,0.013376712799072266,-0.05967763066291809
1712257648812383000,0.904383056640625,-0.06707096099853516,0.05902719497680664,-0.008105993270874023
1712257648822388700,0.914388671875,-0.10697221755981445,0.1130228042602539,-0.017378076910972595
1712257648832394500,0.92439453125,-0.12778902053833008,0.08645868301391602,-0.019780173897743225
1712257648842400300,0.934400146484375,-0.1302962303161621,0.000053882598876953125,-0.06798605620861053
1712257648852406000,0.944406005859375,-0.08662796020507812,-0.04145002365112305,-0.13930948078632355
1712257648862411500,0.95441162109375,-0.03950977325439453,-0.034551143646240234,-0.17252212762832642
1712257648872417300,0.964417236328125,-0.0025949478149414062,-0.004213809967041016,-0.14887627959251404
1712257648882423000,0.974423095703125,-0.0037097930908203125,0.05356454849243164,-0.09203867614269257
1712257648892428800,0.9844287109375,0.018957138061523438,0.10072612762451172,-0.036396101117134094
1712257648902434600,0.9944345703125,0.032134056091308594,0.06674003601074219,-0.02477724850177765
1712257648912440300,1.0044404296875,0.01248788833618164,0.004665374755859375,0.0008700937032699585
1712257648922446000,1.014446044921875,-0.016176223754882812,-0.037630558013916016,-0.020659983158111572
1712257648932451800,1.024451904296875,-0.016251087188720703,-0.050810813903808594,-0.07485207915306091
1712257648942457300,1.034457275390625,-0.011810302734375,-0.02585887908935547,-0.07236804068088531
1712257648952463000,1.044463134765625,0.03045034408569336,0.0031638145446777344,-0.05198381841182709
1712257648962468900,1.05446875,0.07231855392456055,0.03610944747924805,-0.04279790818691254
1712257648972474600,1.064474609375,0.09530210494995117,0.034853458404541016,-0.04888616502285004
1712257648982480400,1.07448046875,0.09034967422485352,0.05639219284057617,-0.05525074899196625
1712257648992486100,1.084486083984375,0.010549545288085938,0.06298255920410156,-0.028317391872406006
1712257649002492000,1.094491943359375,-0.1010289192199707,0.03666210174560547,0.021958738565444946
1712257649012497700,1.10449755859375,-0.16396808624267578,0.05346488952636719,0.15251584351062775
1712257649022503400,1.11450341796875,-0.20276165008544922,0.051587581634521484,0.21217548847198486
1712257649032509000,1.124509033203125,-0.2086477279663086,-0.0013113021850585938,0.10246738791465759
1712257649042514700,1.1345146484375,-0.2060699462890625,-0.023911476135253906,-0.02398352324962616
1712257649052520400,1.1445205078125,-0.11459207534790039,-0.0031266212463378906,-0.027318879961967468
1712257649062526200,1.154526123046875,-0.02938222885131836,0.0550532341003418,-0.022121936082839966
1712257649072532000,1.164531982421875,-0.05374002456665039,0.09798336029052734,-0.08802586793899536
1712257649082537700,1.174537841796875,-0.03985929489135742,0.09296512603759766,-0.15859398245811462
1712257649092543500,1.18454345703125,-0.006999969482421875,0.09708404541015625,-0.18252165615558624
1712257649102549200,1.19454931640625,-0.05922889709472656,0.08679437637329102,-0.09846663475036621
1712257649112554800,1.2045546875,-0.14874982833862305,0.03955364227294922,0.0032002776861190796
1712257649122560500,1.214560546875,-0.10095691680908203,-0.006122589111328125,0.08065570890903473
1712257649132566300,1.224566162109375,-0.040132999420166016,-0.008356571197509766,0.15772828459739685
1712257649142572000,1.234572021484375,0.062114715576171875,-0.0012297630310058594,0.1401345580816269
1712257649152577800,1.244577880859375,0.1112065315246582,0.0006699562072753906,0.052694886922836304
1712257649162583600,1.25458349609375,0.09882211685180664,0.03016042709350586,0.032899484038352966
1712257649172589300,1.26458935546875,-0.016669273376464844,0.03528594970703125,0.06584766507148743
1712257649182594800,1.2745947265625,-0.0974130630493164,-0.0019207000732421875,0.03765426576137543
1712257649192600600,1.2846005859375,-0.3707857131958008,-0.21167612075805664,0.3108721673488617
1712257649202606300,1.2946064453125,-0.6617226600646973,-0.29183101654052734,0.3348483443260193
1712257649212611800,1.30461181640625,-0.3096599578857422,0.3945131301879883,-0.8625235557556152
1712257649222617600,1.31461767578125,0.3763847351074219,0.4846954345703125,-0.7985707521438599
1712257649232623400,1.324623291015625,0.6869869232177734,-0.037539005279541016,-0.06685398519039154
1712257649242628900,1.33462890625,0.3311767578125,-0.28095102310180664,0.28930217027664185
1712257649252634600,1.344634521484375,-0.012882709503173828,-0.07911014556884766,0.2109014391899109
1712257649262640400,1.354640380859375,-0.22920751571655273,0.0020198822021484375,0.09460918605327606
1712257649272646000,1.36464599609375,-0.18413877487182617,0.09253406524658203,-0.047370508313179016
1712257649282651600,1.374651611328125,-0.06527090072631836,0.1400923728942871,-0.07983823120594025
1712257649292657400,1.384657470703125,0.07546424865722656,0.14417314529418945,-0.07980966567993164
1712257649302663000,1.394662841796875,0.1536884307861328,0.08580875396728516,-0.051942378282547
1712257649312668700,1.404668701171875,0.08554744720458984,0.017990589141845703,0.003385692834854126
1712257649322674400,1.41467431640625,-0.01872730255126953,-0.020905494689941406,0.06753647327423096
1712257649332680000,1.424679931640625,-0.06936168670654297,-0.007508277893066406,0.05151815712451935
1712257649342685700,1.434685791015625,-0.08632755279541016,0.029374122619628906,0.016589045524597168
1712257649352691500,1.44469140625,-0.05147075653076172,0.05654430389404297,0.009454026818275452
1712257649362697000,1.454697021484375,-0.05996417999267578,0.05547904968261719,0.020361557602882385
1712257649372702700,1.46470263671875,-0.05000638961791992,0.05975484848022461,0.03500513732433319
1712257649382708500,1.47470849609375,-0.09247112274169922,0.012705326080322266,0.044000133872032166
1712257649392714000,1.4847138671875,-0.3287520408630371,-0.22963666915893555,0.2921316623687744
1712257649402719700,1.4947197265625,-0.3985018730163574,-0.11703824996948242,-0.11268100142478943
1712257649412725500,1.5047255859375,-0.15249872207641602,0.19712066650390625,-0.39177417755126953
1712257649422731000,1.51473095703125,0.2696342468261719,0.1844019889831543,-0.07798311859369278
1712257649432736800,1.52473681640625,0.3530611991882324,0.018245220184326172,0.22561383247375488
1712257649442742500,1.534742431640625,0.14528608322143555,-0.03927755355834961,0.23808926343917847
1712257649452748000,1.544748046875,-0.07239103317260742,0.020942211151123047,0.1068606972694397
1712257649462753800,1.55475390625,-0.31078195571899414,-0.05552101135253906,0.03564274311065674
1712257649472759600,1.564759521484375,-0.3776373863220215,-0.0060939788818359375,-0.15624256432056427
1712257649482765000,1.57476513671875,-0.3513302803039551,0.021389007568359375,-0.22300300002098083
1712257649492770800,1.584770751953125,-0.2048630714416504,0.07876157760620117,-0.26591476798057556
1712257649502776600,1.594776611328125,-0.02383279800415039,0.09357309341430664,-0.18122753500938416
1712257649512782300,1.6047822265625,0.022437572479248047,0.11747312545776367,-0.09854485094547272
1712257649522787800,1.614787841796875,-0.021355628967285156,0.07960271835327148,0.04304791986942291
1712257649532793600,1.624793701171875,-0.04582786560058594,0.005002021789550781,0.040114626288414
1712257649542799400,1.63479931640625,-0.07485008239746094,0.02142333984375,0.017464235424995422
1712257649552804900,1.644804931640625,-0.08003711700439453,0.009555816650390625,0.07028526067733765
1712257649562810600,1.654810546875,-0.06158638000488281,0.012004852294921875,0.042711928486824036
1712257649572816400,1.66481640625,-0.04828023910522461,0.028690814971923828,-0.007472090423107147
1712257649582822000,1.67482177734375,-0.02598857879638672,0.03121185302734375,-0.09820777177810669
1712257649592827600,1.68482763671875,0.005076408386230469,0.019892215728759766,-0.0695011168718338
1712257649602833400,1.69483349609375,0.07342767715454102,0.0651240348815918,-0.026940234005451202
1712257649612839000,1.7048388671875,0.16956520080566406,0.09470844268798828,0.020120352506637573
1712257649622844700,1.7148447265625,0.23275136947631836,0.12193536758422852,0.08140547573566437
1712257649632850400,1.724850341796875,0.2826528549194336,0.11356401443481445,0.09913866966962814
1712257649642856000,1.73485595703125,0.24409246444702148,0.10793209075927734,0.06857550889253616
1712257649652861700,1.74486181640625,0.12264251708984375,0.04919624328613281,0.04227897524833679
1712257649662867500,1.754867431640625,0.03214836120605469,0.0000820159912109375,0.001296311616897583
1712257649672873000,1.764873046875,-0.0473475456237793,-0.005909442901611328,-0.020820006728172302
1712257649682878700,1.774878662109375,-0.15914487838745117,0.012525081634521484,-0.0008283108472824097
1712257649692884500,1.784884521484375,-0.10993766784667969,0.06941032409667969,0.019772395491600037
1712257649702890000,1.794889892578125,-0.005393505096435547,0.0880589485168457,0.04639898240566254
1712257649712895700,1.804895751953125,0.04103803634643555,0.04031085968017578,-0.006553821265697479
1712257649722901500,1.814901611328125,0.01647663116455078,0.007016181945800781,-0.07306277006864548
1712257649732907000,1.824906982421875,0.002284526824951172,-0.021636009216308594,-0.06354151666164398
1712257649742912800,1.834912841796875,0.031516075134277344,0.0010461807250976562,0.011830456554889679
1712257649752918500,1.84491845703125,0.023401737213134766,0.05066204071044922,0.015619948506355286
1712257649762924000,1.854924072265625,-0.045513153076171875,0.04734659194946289,-0.0472462959587574
1712257649772929800,1.8649296875,-0.08037900924682617,0.044170379638671875,-0.04896313324570656
1712257649782935600,1.874935546875,-0.08162784576416016,0.05038738250732422,0.0049912407994270325
1712257649792941000,1.884941162109375,-0.08298444747924805,0.033112525939941406,0.015304047614336014
1712257649802946800,1.89494677734375,-0.10832977294921875,0.021379470825195312,0.015741780400276184
1712257649812952600,1.90495263671875,-0.12443828582763672,0.019962310791015625,0.02950720489025116
1712257649822958000,1.9149580078125,-0.11741495132446289,0.06172466278076172,0.14257580041885376
1712257649832963800,1.9249638671875,-0.035185813903808594,0.0462794303894043,0.1813237965106964
1712257649842969600,1.934969482421875,-0.01541280746459961,0.021511077880859375,0.06617292761802673
1712257649852975400,1.944975341796875,-0.05233573913574219,0.05350351333618164,0.00022066012024879456
1712257649862981000,1.954981201171875,-0.036443233489990234,0.06566381454467773,-0.04055255651473999
1712257649872987000,1.96498681640625,-0.1148529052734375,0.04921913146972656,-0.0894278883934021
1712257649882992600,1.97499267578125,-0.16397523880004883,0.023951053619384766,-0.10857220739126205
1712257649892998100,1.984998046875,-0.09476423263549805,0.022887706756591797,-0.10343529284000397
1712257649903004000,1.99500390625,-0.04102945327758789,0.01737356185913086,-0.12328016757965088
1712257649913009700,2.005009765625,-0.016641616821289062,0.03102397918701172,-0.12675291299819946
1712257649923015400,2.015015380859375,-0.03524065017700195,0.06822586059570312,-0.09877349436283112
1712257649933021200,2.025021240234375,0.007545948028564453,0.08613014221191406,-0.14246219396591187
1712257649943027000,2.03502685546875,0.030919551849365234,0.06591129302978516,-0.12992994487285614
1712257649953032700,2.04503271484375,-0.03576469421386719,-0.014949321746826172,-0.1047152653336525
1712257649963038500,2.05503857421875,-0.2816925048828125,-0.17287302017211914,-0.0870131403207779
1712257649973044000,2.0650439453125,-0.1296243667602539,0.04097270965576172,-0.10749219357967377
1712257649983049700,2.0750498046875,0.1469125747680664,0.18078184127807617,0.0634617805480957
1712257649993055500,2.085055419921875,0.31660938262939453,0.10481786727905273,0.12050683796405792
1712257650003061200,2.095061279296875,0.1265716552734375,-0.0321807861328125,0.12881076335906982
1712257650013067000,2.10506689453125,-0.03218507766723633,-0.04902505874633789,0.02697138674557209
1712257650023072800,2.11507275390625,0.018883705139160156,0.052126407623291016,0.020974935963749886
1712257650033078500,2.12507861328125,0.06500244140625,0.06613445281982422,0.07634752988815308
1712257650043084300,2.135084228515625,-0.007091999053955078,0.05605459213256836,0.040354758501052856
1712257650053089800,2.14508984375,-0.06392574310302734,0.05563783645629883,-0.05261443927884102
1712257650063095600,2.155095458984375,-0.09640359878540039,0.05067586898803711,-0.031777821481227875
1712257650073101300,2.165101318359375,-0.1473093032836914,0.022409439086914062,0.02674022503197193
1712257650083107000,2.175107177734375,-0.18337583541870117,-0.01935577392578125,-0.008737477473914623
1712257650093112800,2.18511279296875,-0.15776586532592773,-0.027307987213134766,-0.042754143476486206
1712257650103118600,2.19511865234375,-0.10453462600708008,-0.01135110855102539,-0.038503848016262054
1712257650113124400,2.205124267578125,-0.051987648010253906,0.008814811706542969,-0.01979784667491913
1712257650123130000,2.215130126953125,-0.0046863555908203125,0.028254032135009766,-0.010753048583865166
1712257650133136000,2.225135986328125,0.03752470016479492,0.06102609634399414,-0.020745161920785904
1712257650143141400,2.235141357421875,0.027576446533203125,0.08344411849975586,-0.011397860944271088
1712257650153147100,2.245147216796875,0.013355731964111328,0.08163213729858398,-0.010925518348813057
1712257650163153000,2.25515283203125,0.03287458419799805,0.0698084831237793,-0.014637633226811886
1712257650173158700,2.26515869140625,0.05267906188964844,0.029227733612060547,-0.04648132622241974
1712257650183164400,2.275164306640625,0.04444456100463867,0.03578519821166992,-0.07816331088542938
1712257650193170200,2.285170166015625,-0.06730890274047852,0.04702186584472656,-0.07712285965681076
1712257650203176000,2.295176025390625,-0.1639552116394043,-0.011542320251464844,-0.06263160705566406
1712257650213181700,2.305181640625,-0.3500828742980957,-0.1096348762512207,-0.16234804689884186
1712257650223187200,2.315187255859375,-0.42295026779174805,-0.11806440353393555,-0.18217933177947998
1712257650233193000,2.32519287109375,-0.21411609649658203,-0.006302356719970703,0.053318653255701065
1712257650243198700,2.33519873046875,0.08002710342407227,0.06670856475830078,0.22602209448814392
1712257650253204500,2.34520458984375,0.2997918128967285,0.09951210021972656,0.2247253805398941
1712257650263210000,2.3552099609375,0.30139636993408203,0.10110139846801758,0.06360398232936859
1712257650273215700,2.3652158203125,0.16825246810913086,0.09584856033325195,-0.0022684847936034203
1712257650283221500,2.375221435546875,0.015272140502929688,0.07954740524291992,-0.025899402797222137
1712257650293227000,2.38522705078125,-0.07286405563354492,0.05285167694091797,-0.07304275780916214
1712257650303232800,2.395232666015625,-0.10235166549682617,0.039946556091308594,-0.07725171744823456
1712257650313238500,2.405238525390625,-0.11244440078735352,0.06013965606689453,-0.0721091777086258
1712257650323244000,2.415244140625,-0.07582330703735352,0.09474802017211914,-0.10939349979162216
1712257650333249800,2.425249755859375,-0.007596492767333984,0.0731353759765625,-0.11819534003734589
1712257650343255600,2.435255615234375,0.05444622039794922,0.04756450653076172,-0.06601878255605698
1712257650353261000,2.445260986328125,0.09211540222167969,0.022185325622558594,0.009336267597973347
1712257650363266800,2.455266845703125,0.044877052307128906,-0.017443180084228516,0.07442501187324524
1712257650373272600,2.4652724609375,-0.024979591369628906,-0.03302478790283203,0.03000231459736824
1712257650383278000,2.475278076171875,-0.12239694595336914,-0.05250835418701172,-0.02384650707244873
1712257650393283800,2.485283935546875,-0.13902711868286133,-0.08477783203125,-0.02054523676633835
1712257650403289600,2.49528955078125,-0.09020757675170898,-0.09210777282714844,-0.0029560113325715065
1712257650413295000,2.505295166015625,0.07053422927856445,-0.03779172897338867,-0.014046772383153439
1712257650423300900,2.51530078125,0.13005399703979492,0.07173347473144531,-0.024376381188631058
1712257650433306600,2.525306640625,0.03386735916137695,0.10802507400512695,-0.012929034419357777
1712257650443312400,2.5353125,-0.07955455780029297,0.058957576751708984,-0.017960302531719208
1712257650453318000,2.54531787109375,-0.14481258392333984,0.030478954315185547,-0.11693855375051498
1712257650463323600,2.55532373046875,-0.06375646591186523,0.026874542236328125,-0.1973259150981903
1712257650473329400,2.565329345703125,0.09183263778686523,0.05095481872558594,-0.12345725297927856
1712257650483335000,2.5753349609375,0.23697280883789062,0.10109138488769531,-0.03515183553099632
1712257650493340700,2.585340576171875,0.23576641082763672,0.15276527404785156,-0.15109485387802124
1712257650503346400,2.595346435546875,0.146697998046875,0.15941524505615234,-0.23889560997486115
1712257650513352000,2.60535205078125,0.12138509750366211,0.15538501739501953,-0.1185549944639206
1712257650523357700,2.615357666015625,0.18691349029541016,0.09863901138305664,-0.023022998124361038
1712257650533363500,2.625363525390625,0.2191767692565918,0.08917093276977539,-0.021654359996318817
1712257650543369000,2.635368896484375,0.09113121032714844,0.1173253059387207,0.0014932602643966675
1712257650553374700,2.645374755859375,-0.09166193008422852,0.13616228103637695,0.10007989406585693
1712257650563380500,2.65538037109375,-0.12148094177246094,0.11796045303344727,0.0626164972782135
1712257650573386000,2.665385986328125,-0.09486150741577148,0.025427818298339844,0.027714312076568604
1712257650583391700,2.675391845703125,-0.10683536529541016,-0.0649423599243164,0.022503286600112915
1712257650593397500,2.6853974609375,-0.11446952819824219,-0.1389007568359375,-0.0025672167539596558
1712257650603403000,2.695403076171875,-0.0939168930053711,-0.08417701721191406,0.015149742364883423
1712257650613408800,2.70540869140625,0.021250247955322266,-0.01238870620727539,0.08131682872772217
1712257650623414500,2.71541455078125,0.10323095321655273,0.02807331085205078,0.1337222158908844
1712257650633420000,2.725419921875,0.10550737380981445,0.018968582153320312,0.11909443140029907
1712257650643425800,2.73542578125,0.15178966522216797,0.04133796691894531,0.03195503354072571
1712257650653431600,2.745431640625,0.062282562255859375,0.04302501678466797,0.09044244885444641
1712257650663437000,2.75543701171875,-0.1712946891784668,0.07251548767089844,0.1545349657535553
1712257650673442800,2.76544287109375,-0.32680463790893555,0.06025886535644531,0.04321032762527466
1712257650683448600,2.775448486328125,-0.4867362976074219,0.07876110076904297,-0.05669674277305603
1712257650693454000,2.7854541015625,-0.6572384834289551,0.11974239349365234,-0.20251303911209106
1712257650703459800,2.7954599609375,-0.7071371078491211,0.13196516036987305,-0.2718726098537445
1712257650713465600,2.805465576171875,-0.6101994514465332,0.12068891525268555,-0.26727497577667236
1712257650723471000,2.81547119140625,-0.3436403274536133,0.08451318740844727,-0.21902015805244446
1712257650733476900,2.825476806640625,-0.006187915802001953,0.006569862365722656,-0.1620689034461975
1712257650743482600,2.835482666015625,0.20994806289672852,-0.006249904632568359,-0.01811349391937256
1712257650753488100,2.845488037109375,0.27922725677490234,0.03473949432373047,0.113210529088974
1712257650763494000,2.855493896484375,0.2749495506286621,0.03880786895751953,0.12536835670471191
1712257650773499600,2.865499755859375,0.17467975616455078,-0.04987049102783203,0.10125049948692322
1712257650783505400,2.87550537109375,0.007630348205566406,-0.15378379821777344,0.17431962490081787
1712257650793511000,2.885510986328125,-0.11757898330688477,-0.23886632919311523,0.18317419290542603
1712257650803516700,2.8955166015625,-0.17902183532714844,-0.2196025848388672,0.1563665270805359
1712257650813522400,2.9055224609375,-0.144927978515625,-0.1445913314819336,0.1357887089252472
1712257650823528000,2.91552783203125,-0.059535980224609375,-0.04725933074951172,0.10030129551887512
1712257650833533700,2.92553369140625,-0.0037436485290527344,0.029718875885009766,0.12442997097969055
1712257650843539500,2.93553955078125,-0.0152130126953125,0.05414867401123047,0.1473088264465332
1712257650853545000,2.945544921875,-0.1076498031616211,0.022776126861572266,0.16664782166481018
1712257650863550700,2.95555078125,-0.2945709228515625,0.03139352798461914,0.10390815138816833
1712257650873556500,2.965556396484375,-0.3636050224304199,0.07115554809570312,0.03491559624671936
1712257650883562200,2.975562255859375,-0.3124246597290039,0.0902705192565918,0.04346850514411926
1712257650893568000,2.985568115234375,-0.2891216278076172,0.11280393600463867,0.01933273673057556
1712257650903573800,2.99557373046875,-0.11869001388549805,0.09132766723632812,-0.09889253973960876
1712257650913579500,3.00557958984375,0.10408973693847656,0.09071588516235352,-0.08653366565704346
1712257650923585300,3.015585205078125,0.22005176544189453,0.04742002487182617,-0.04399979114532471
1712257650933590800,3.0255908203125,0.21826839447021484,-0.0018906593322753906,0.007108032703399658
1712257650943596500,3.035596435546875,0.07696390151977539,-0.061830997467041016,0.04619219899177551
1712257650953602300,3.045602294921875,-0.15634393692016602,-0.06901311874389648,0.036853015422821045
1712257650963608000,3.055608154296875,-0.47363996505737305,-0.03994464874267578,-0.005516916513442993
1712257650973613800,3.06561376953125,-0.7536859512329102,0.04633474349975586,-0.13883592188358307
1712257650983619600,3.07561962890625,-0.7673811912536621,0.16183185577392578,-0.24340170621871948
1712257650993625300,3.085625244140625,-0.5845589637756348,0.24932527542114258,-0.3647916615009308
1712257651003631000,3.095631103515625,-0.34778690338134766,0.2556929588317871,-0.39363163709640503
1712257651013636900,3.105636962890625,0.0338749885559082,0.2458047866821289,-0.3253084421157837
1712257651023642400,3.115642333984375,0.6934800148010254,0.19713878631591797,-0.10917315632104874
1712257651033648000,3.125648193359375,0.8904762268066406,0.15824174880981445,-0.12122604250907898
1712257651043654000,3.13565380859375,0.7277626991271973,0.07095956802368164,-0.03865630179643631
1712257651053659600,3.14565966796875,0.4735264778137207,0.041150569915771484,-0.028908200562000275
1712257651063665400,3.15566552734375,0.25498485565185547,0.1023564338684082,-0.04624702036380768
1712257651073671200,3.165671142578125,0.2448716163635254,0.04218292236328125,0.05515517294406891
1712257651083677000,3.175677001953125,0.4827299118041992,-0.16632938385009766,0.1945236325263977
1712257651093682700,3.1856826171875,0.5372743606567383,-0.20682287216186523,0.1526126265525818
1712257651103688200,3.195688232421875,0.6100473403930664,-0.2101292610168457,0.17203015089035034
1712257651113694000,3.20569384765625,0.4891223907470703,-0.12070798873901367,0.11121786385774612
1712257651123699700,3.21569970703125,0.22377443313598633,0.004591941833496094,-0.033901117742061615
1712257651133705500,3.22570556640625,-0.08627128601074219,0.11993217468261719,-0.02311321347951889
1712257651143711200,3.235711181640625,-0.47136640548706055,0.18174171447753906,0.07401580363512039
1712257651153717000,3.245717041015625,-0.5092453956604004,0.10940980911254883,0.020896874368190765
1712257651163722800,3.25572265625,-0.3430781364440918,0.038023948669433594,0.008808255195617676
1712257651173728500,3.265728515625,0.024718761444091797,-0.005300998687744141,0.0725180134177208
1712257651183734000,3.275734130859375,0.1114506721496582,0.04376935958862305,0.08552580326795578
1712257651193739800,3.28573974609375,0.08777904510498047,0.041014671325683594,0.05346447601914406
1712257651203745500,3.29574560546875,0.2210369110107422,-0.014819145202636719,0.0969071313738823
1712257651213751300,3.305751220703125,0.4210538864135742,-0.08266878128051758,0.0715918019413948
1712257651223757000,3.315757080078125,0.8626604080200195,-0.09366083145141602,0.03667213395237923
1712257651233762800,3.3257626953125,1.3664522171020508,-0.0197906494140625,0.20002685487270355
1712257651243768600,3.3357685546875,1.067258358001709,0.10203027725219727,0.30961495637893677
1712257651253774300,3.3457744140625,0.65118408203125,0.33778810501098633,-0.12493829429149628
1712257651263780000,3.355780029296875,0.579679012298584,0.42925405502319336,-0.5286898612976074
1712257651273785600,3.36578564453125,0.7418694496154785,0.2021808624267578,-0.5482446551322937
1712257651283791400,3.375791259765625,0.911461353302002,-0.04935121536254883,-0.36046576499938965
1712257651293797000,3.385797119140625,1.210975170135498,-0.17421245574951172,-0.09384885430335999
1712257651303802600,3.395802734375,1.9066567420959473,-0.22661685943603516,0.2018277794122696
1712257651313808400,3.405808349609375,1.9553203582763672,-0.15762758255004883,0.31257328391075134
1712257651323814100,3.415814208984375,1.4773268699645996,-0.2627110481262207,0.5486230254173279
1712257651333819600,3.425819580078125,1.2221970558166504,-0.472592830657959,0.4047141671180725
1712257651343825400,3.435825439453125,0.7231245040893555,-0.6020727157592773,0.278944194316864
1712257651353831200,3.4458310546875,0.24836254119873047,-0.5084600448608398,0.5055617094039917
1712257651363836700,3.455836669921875,0.2258744239807129,-0.6919436454772949,0.11729307472705841
1712257651373842400,3.465842529296875,0.42281246185302734,-0.8240466117858887,-0.03362194448709488
1712257651383848200,3.47584814453125,0.4406442642211914,-0.7596793174743652,-0.17022104561328888
1712257651393853700,3.485853759765625,0.3975687026977539,-0.8028130531311035,-0.39584699273109436
1712257651403859500,3.495859375,0.4394397735595703,-0.9262924194335938,-0.17997999489307404
1712257651413865200,3.505865234375,0.5204658508300781,-0.964085578918457,0.20108364522457123
1712257651423871000,3.51587109375,0.7049741744995117,-0.8603067398071289,0.20329071581363678
1712257651433876500,3.52587646484375,0.5835504531860352,-0.9596195220947266,-0.6719334125518799
1712257651443882200,3.53588232421875,0.7583703994750977,-1.3417601585388184,-0.6575172543525696
1712257651453888000,3.545887939453125,0.9864258766174316,-1.4995942115783691,-0.2999248504638672
1712257651463893500,3.5558935546875,1.130753517150879,-1.9440889358520508,-0.6426135897636414
1712257651473899300,3.565899169921875,1.2837700843811035,-2.2916440963745117,-0.5925434827804565
1712257651483905000,3.575905029296875,2.005052089691162,-1.0922627449035645,-0.18445724248886108
1712257651493910500,3.58591064453125,1.8938450813293457,0.12178897857666016,0.2642001211643219
1712257651503916300,3.595916259765625,0.6790719032287598,-0.1313629150390625,0.6209595203399658
1712257651513922000,3.605922119140625,-0.481534481048584,-0.5885934829711914,0.9424521327018738
1712257651523927600,3.615927490234375,-1.2928307056427002,-0.5913782119750977,0.9631858468055725
1712257651533933300,3.625933349609375,-2.185234546661377,-0.38223743438720703,0.29832226037979126
1712257651543939000,3.63593896484375,-3.067366361618042,-0.31381988525390625,0.07860807329416275
1712257651553944600,3.645944580078125,-3.819624662399292,-0.08442020416259766,0.46780675649642944
1712257651563950300,3.655950439453125,-4.096417427062988,0.33242321014404297,0.19139929115772247
1712257651573956000,3.6659560546875,-4.070693016052246,0.4565086364746094,-0.438483864068985
1712257651583961600,3.675961669921875,-3.6508336067199707,0.27689266204833984,-0.689189076423645
1712257651593967400,3.68596728515625,-2.597960948944092,-0.3039731979370117,-0.876796543598175
1712257651603973000,3.69597314453125,-1.3724335432052612,-1.0256013870239258,-0.8286980986595154
1712257651613978600,3.705978515625,-0.32372546195983887,-0.5246896743774414,-0.4491533935070038
1712257651623984400,3.715984375,0.9194281101226807,-0.13542747497558594,-0.5414063930511475
1712257651633990100,3.725990234375,1.8632874488830566,-0.4957399368286133,-0.2678591310977936
1712257651643995600,3.73599560546875,2.008220911026001,-0.6399984359741211,-0.06633344292640686
1712257651654001400,3.74600146484375,1.5489590167999268,-0.36700439453125,0.1515873521566391
1712257651664007200,3.756007080078125,0.9500982761383057,0.11844730377197266,0.4570577144622803
1712257651674012700,3.7660126953125,-0.09549450874328613,0.17285728454589844,0.3459436595439911
1712257651684018400,3.776018310546875,-0.4562124013900757,0.20464420318603516,0.23996318876743317
1712257651694024200,3.786024169921875,-0.2921220064163208,0.2473602294921875,0.2004774510860443
1712257651704029700,3.79602978515625,-0.0028606653213500977,0.1857585906982422,-0.06650802493095398
1712257651714035500,3.806035400390625,0.1374279260635376,0.2537069320678711,0.041755303740501404
1712257651724041200,3.816041259765625,-0.06622588634490967,0.1024017333984375,0.15411248803138733
1712257651734046700,3.826046630859375,-0.2129833698272705,-0.17648601531982422,-0.019985347986221313
1712257651744052500,3.836052490234375,-0.31416958570480347,-0.2718839645385742,-0.1504446566104889
1712257651754058200,3.846058349609375,-0.41575199365615845,-0.2794656753540039,-0.28177565336227417
1712257651764064000,3.85606396484375,-0.6596169471740723,-0.2612953186035156,-0.25218433141708374
1712257651774069500,3.866069580078125,-0.900942325592041,-0.19341278076171875,-0.18085820972919464
1712257651784075300,3.8760751953125,-1.0219601392745972,-0.1429157257080078,0.03444118797779083
1712257651794081000,3.8860810546875,-1.3439397811889648,-0.13861846923828125,0.08005768805742264
1712257651804086500,3.89608642578125,-1.6228089332580566,-0.09929466247558594,0.04145531356334686
1712257651814092300,3.90609228515625,-1.640536904335022,-0.09697437286376953,-0.12916189432144165
1712257651824098000,3.91609814453125,-1.4723076820373535,-0.16540241241455078,-0.16531774401664734
1712257651834103600,3.926103515625,-1.234235405921936,-0.14712810516357422,-0.23510976135730743
1712257651844109300,3.936109375,-0.9848332405090332,-0.13335037231445312,-0.15714752674102783
1712257651854115000,3.946114990234375,-0.6972711086273193,-0.07641792297363281,0.00264190137386322
1712257651864120800,3.956120849609375,-0.5750860571861267,-0.08158206939697266,0.03502071648836136
1712257651874126600,3.966126708984375,-0.6185033321380615,-0.13436222076416016,0.02605903148651123
1712257651884132400,3.97613232421875,-0.7138521075248718,-0.1391143798828125,-0.06786397099494934
1712257651894138000,3.98613818359375,-0.6845796704292297,-0.2106180191040039,-0.11403697729110718
1712257651904144000,3.996143798828125,-0.6020734310150146,-0.26276302337646484,-0.14669236540794373
1712257651914149400,4.0061494140625,-0.4173107445240021,-0.2765312194824219,-0.12805500626564026
1712257651924155100,4.016155029296875,-0.20040597021579742,-0.25205421447753906,-0.15401320159435272
1712257651934161000,4.026160888671875,-0.1261589080095291,-0.2515544891357422,-0.09549671411514282
1712257651944166700,4.036166748046875,-0.0020018815994262695,-0.24153804779052734,0.12028848379850388
1712257651954172400,4.04617236328125,-0.06646967679262161,-0.12172126770019531,0.17354163527488708
1712257651964178200,4.05617822265625,-0.27238577604293823,-0.09296989440917969,0.0980982631444931
1712257651974184000,4.066183837890625,-0.33917152881622314,-0.15502643585205078,0.10423259437084198
1712257651984189700,4.076189697265625,-0.2673874497413635,-0.1882486343383789,0.058206707239151
1712257651994195500,4.086195556640625,-0.4456479847431183,-0.21657657623291016,0.05535042658448219
1712257652004201000,4.096200927734375,-0.6318303346633911,-0.20178794860839844,0.03858140856027603
1712257652014206700,4.106206787109375,-0.6793006062507629,-0.21562671661376953,-0.012058146297931671
1712257652024212500,4.11621240234375,-0.7176791429519653,-0.23890972137451172,-0.0012330003082752228
1712257652034218200,4.12621826171875,-0.7569794654846191,-0.2047281265258789,0.00888819620013237
1712257652044224000,4.13622412109375,-0.7057193517684937,-0.180084228515625,0.04225974157452583
1712257652054229800,4.146229736328125,-0.6587063074111938,-0.12195682525634766,0.007852252572774887
1712257652064235500,4.156235595703125,-0.6867313385009766,-0.1259479522705078,0.05896470695734024
1712257652074241300,4.1662412109375,-0.6460965275764465,-0.11068153381347656,0.057038065046072006
1712257652084246800,4.176246826171875,-0.4743380844593048,-0.07141780853271484,0.11231186985969543
1712257652094252500,4.18625244140625,-0.44764429330825806,0.00131988525390625,0.1732383668422699
1712257652104258300,4.19625830078125,-0.6142629384994507,0.03105926513671875,0.11118381470441818
1712257652114264000,4.20626416015625,-0.8133237361907959,-0.02498626708984375,0.05014622211456299
1712257652124269800,4.216269775390625,-0.9267128705978394,-0.11396408081054688,0.009155578911304474
1712257652134275600,4.226275634765625,-1.017807126045227,-0.18790817260742188,-0.03595073148608208
1712257652144281300,4.23628125,-1.173607349395752,-0.237152099609375,-0.08575639128684998
1712257652154287000,4.246287109375,-1.4246418476104736,-0.2041940689086914,-0.05945023521780968
1712257652164292600,4.256292724609375,-1.5430701971054077,-0.23223400115966797,-0.06718558073043823
1712257652174298400,4.26629833984375,-1.624838948249817,-0.26830005645751953,-0.14298197627067566
1712257652184304000,4.27630419921875,-1.689078450202942,-0.27385902404785156,-0.1529395878314972
1712257652194310000,4.286309814453125,-1.4798026084899902,-0.22633838653564453,-0.1002325788140297
1712257652204315600,4.296315673828125,-1.2026277780532837,-0.1635723114013672,0.012566342949867249
1712257652214321400,4.3063212890625,-0.9265837669372559,-0.11404037475585938,-0.026989348232746124
1712257652224327200,4.3163271484375,-0.5676774382591248,-0.10129642486572266,0.04767321050167084
1712257652234333000,4.3263330078125,-0.22218704223632812,-0.16279315948486328,0.0933874249458313
1712257652244338700,4.336338623046875,-0.009712815284729004,-0.22234821319580078,0.0873548835515976
1712257652254344200,4.34634423828125,0.0870746374130249,-0.2520160675048828,0.06765271723270416
1712257652264350000,4.356349853515625,0.06562936305999756,-0.19390583038330078,0.12153016030788422
1712257652274355700,4.366355712890625,-0.008698582649230957,-0.1736736297607422,0.1530957669019699
1712257652284361500,4.376361572265625,-0.055669307708740234,-0.18161773681640625,0.10566610097885132
1712257652294367200,4.3863671875,-0.06692051887512207,-0.21752643585205078,0.02670714259147644
1712257652304372700,4.396372802734375,-0.1489245891571045,-0.25243091583251953,-0.04636159539222717
1712257652314378500,4.40637841796875,-0.24103856086730957,-0.2429819107055664,-0.06608077883720398
1712257652324384300,4.41638427734375,-0.2727937698364258,-0.2224111557006836,0.0680321753025055
1712257652334389800,4.4263896484375,-0.1293346881866455,-0.06659317016601562,0.2559395432472229
1712257652344395500,4.4363955078125,-0.1208491325378418,-0.1676473617553711,0.16760599613189697
1712257652354401300,4.4464013671875,-0.08930063247680664,-0.10456371307373047,0.06552237272262573
1712257652364406800,4.45640673828125,-0.0430300235748291,-0.06915664672851562,0.16546225547790527
1712257652374412500,4.46641259765625,0.04733395576477051,-0.0998392105102539,0.22528864443302155
1712257652384418300,4.476418212890625,0.07673168182373047,-0.13917064666748047,0.019445687532424927
1712257652394423800,4.486423828125,-0.14207863807678223,-0.2488393783569336,-0.11941909790039062
1712257652404429600,4.4964296875,-0.24252581596374512,-0.2656068801879883,-0.2892499566078186
1712257652414435300,4.506435302734375,-0.3691563606262207,-0.28958988189697266,-0.247182235121727
1712257652424440800,4.51644091796875,-0.33602309226989746,-0.36353492736816406,-0.20214426517486572
1712257652434446600,4.526446533203125,-0.2385396957397461,-0.3870878219604492,-0.13866817951202393
1712257652444452400,4.536452392578125,-0.16272687911987305,-0.31732845306396484,-0.050727955996990204
1712257652454458000,4.5464580078125,-0.07466292381286621,-0.25965309143066406,0.0871477872133255
1712257652464463600,4.556463623046875,-0.07998228073120117,-0.22326946258544922,0.14745917916297913
1712257652474469400,4.566469482421875,-0.14585614204406738,-0.26490116119384766,0.014526158571243286
1712257652484475100,4.57647509765625,-0.2195448875427246,-0.2933921813964844,-0.15070965886116028
1712257652494480600,4.586480712890625,-0.23840904235839844,-0.2705841064453125,-0.2641322910785675
1712257652504486400,4.596486328125,-0.3029670715332031,-0.2775716781616211,-0.2790685296058655
1712257652514492200,4.6064921875,-0.25004053115844727,-0.23322010040283203,-0.27252525091171265
1712257652524497700,4.61649755859375,-0.24582195281982422,-0.2671527862548828,-0.19469454884529114
1712257652534503400,4.62650341796875,-0.19900083541870117,-0.26946544647216797,-0.05340482294559479
1712257652544509200,4.63650927734375,-0.1953907012939453,-0.2164144515991211,-0.06325806677341461
1712257652554514700,4.6465146484375,-0.2974534034729004,-0.2510690689086914,-0.022542934864759445
1712257652564520400,4.6565205078125,-0.3002314567565918,-0.22458457946777344,0.040135458111763
1712257652574526200,4.666526123046875,-0.28502321243286133,-0.08924388885498047,0.003064814954996109
1712257652584531700,4.67653173828125,-0.36647605895996094,-0.021886825561523438,-0.023521246388554573
1712257652594537500,4.686537353515625,-0.3670496940612793,-0.060761451721191406,0.04315533861517906
1712257652604543200,4.696543212890625,-0.23758792877197266,-0.09670591354370117,0.09192386269569397
1712257652614548700,4.706548828125,-0.12012195587158203,-0.20248794555664062,0.12242390960454941
1712257652624554500,4.716554443359375,0.034899234771728516,-0.24082422256469727,0.08199267089366913
1712257652634560300,4.726560302734375,0.15227985382080078,-0.19881629943847656,0.0841803029179573
1712257652644565800,4.736565673828125,0.17523670196533203,-0.1442103385925293,0.10084079951047897
1712257652654571500,4.746571533203125,0.22834157943725586,-0.11574983596801758,0.11654739081859589
1712257652664577300,4.756577392578125,0.14902019500732422,-0.08499956130981445,0.14106331765651703
1712257652674582800,4.766582763671875,0.10485315322875977,-0.07626771926879883,0.1467278003692627
1712257652684588500,4.776588623046875,0.08577680587768555,-0.09426689147949219,0.12356789410114288
1712257652694594300,4.78659423828125,-0.02888011932373047,-0.0808706283569336,0.19409100711345673
1712257652704599800,4.796599853515625,-0.21213245391845703,-0.1014261245727539,0.1535847783088684
1712257652714605600,4.80660546875,-0.14081478118896484,-0.1304621696472168,-0.054780542850494385
1712257652724611300,4.816611328125,0.11830759048461914,-0.18799924850463867,-0.010324820876121521
1712257652734616800,4.826616943359375,0.16968774795532227,-0.2132425308227539,0.16070914268493652
1712257652744622600,4.83662255859375,-0.014802932739257812,-0.12029790878295898,0.24786975979804993
1712257652754628400,4.84662841796875,-0.31145286560058594,-0.07550430297851562,0.15044663846492767
1712257652764633900,4.8566337890625,-0.5160245895385742,-0.06762838363647461,0.11916309595108032
1712257652774639600,4.8666396484375,-0.691840648651123,-0.1192784309387207,0.08756136894226074
1712257652784645400,4.876645263671875,-0.7637453079223633,-0.1428055763244629,0.012824967503547668
1712257652794651100,4.886651123046875,-0.5600876808166504,-0.12857675552368164,-0.03748244047164917
1712257652804656600,4.89665673828125,-0.12319278717041016,-0.1451730728149414,-0.06949661672115326
1712257652814662400,4.906662353515625,0.30562877655029297,-0.10539770126342773,-0.03508231043815613
1712257652824668200,4.916668212890625,0.5424604415893555,-0.07935237884521484,0.11458715051412582
1712257652834674000,4.926673828125,0.5462675094604492,-0.01181173324584961,0.20176559686660767
1712257652844679700,4.9366796875,0.2403402328491211,0.031144142150878906,0.13255131244659424
1712257652854685400,4.946685546875,0.1012735366821289,-0.04373741149902344,0.060491129755973816
1712257652864691200,4.956691162109375,0.11340808868408203,-0.07751846313476562,-0.01325388252735138
1712257652874697000,4.966697021484375,0.0848379135131836,-0.0555109977722168,-0.08016510307788849
1712257652884702500,4.976702392578125,0.1347799301147461,-0.025408267974853516,-0.17284391820430756
1712257652894708200,4.986708251953125,0.17706012725830078,-0.006571769714355469,-0.20552915334701538
1712257652904714000,4.9967138671875,0.31737613677978516,-0.02396869659423828,-0.19624991714954376
1712257652914719700,5.0067197265625,0.40814685821533203,-0.0023908615112304688,-0.16501283645629883
1712257652924725500,5.0167255859375,0.3829936981201172,-0.02860736846923828,-0.17052245140075684
1712257652934731300,5.026731201171875,0.39954090118408203,-0.03535270690917969,-0.1627998650074005
1712257652944737000,5.036737060546875,0.47193336486816406,0.01547384262084961,-0.0836271345615387
1712257652954742800,5.04674267578125,0.46088314056396484,0.06247997283935547,-0.07618933916091919
1712257652964748300,5.056748291015625,0.41353607177734375,0.09256839752197266,-0.09189558029174805
1712257652974754000,5.066754150390625,0.43453121185302734,0.08269166946411133,-0.03510347008705139
1712257652984759800,5.076759765625,0.4756307601928711,0.06205034255981445,-0.020744334906339645
1712257652994765600,5.086765625,0.5703001022338867,0.049587249755859375,-0.05910975858569145
1712257653004771300,5.096771240234375,0.7284669876098633,0.04436302185058594,-0.04689095914363861
1712257653014777000,5.106777099609375,0.7833938598632812,0.01658916473388672,0.011608295142650604
1712257653024782800,5.116782958984375,0.7691440582275391,-0.0009999275207519531,0.07979285717010498
1712257653034788600,5.12678857421875,0.6713972091674805,0.025160789489746094,0.08303193747997284
1712257653044794400,5.13679443359375,0.5374011993408203,0.014935016632080078,0.04588425159454346
1712257653054800000,5.1467998046875,0.4666872024536133,0.008073806762695312,0.003411911427974701
1712257653064805600,5.1568056640625,0.5448942184448242,0.043051719665527344,-0.08722484856843948
1712257653074811400,5.166811279296875,0.6574029922485352,0.08558988571166992,-0.09216244518756866
1712257653084817200,5.176817138671875,0.7379684448242188,0.08183145523071289,-0.10894447565078735
1712257653094823000,5.186822998046875,0.7105131149291992,0.10307455062866211,-0.15476100146770477
1712257653104828700,5.19682861328125,0.532109260559082,0.11618566513061523,-0.11575090885162354
1712257653114834400,5.20683447265625,0.3647642135620117,0.12733936309814453,-0.06301571428775787
1712257653124840200,5.216840087890625,0.0782785415649414,0.12442827224731445,-0.04889392480254173
1712257653134845700,5.226845703125,-0.14214611053466797,0.0861043930053711,-0.03247354179620743
1712257653144851500,5.2368515625,-0.11546897888183594,0.07988119125366211,-0.012533172965049744
1712257653154857200,5.246857177734375,0.11066818237304688,0.09960699081420898,-0.04856502637267113
1712257653164863000,5.256863037109375,0.36528778076171875,0.0804290771484375,-0.0662100613117218
1712257653174868700,5.26686865234375,0.5016822814941406,0.06273317337036133,-0.06114501878619194
1712257653184874500,5.27687451171875,0.5351486206054688,0.04520559310913086,-0.07094016671180725
1712257653194880300,5.28688037109375,0.4613056182861328,0.05621910095214844,-0.08188734203577042
1712257653204886000,5.296885986328125,0.24151325225830078,0.0874490737915039,-0.10775354504585266
1712257653214891500,5.3068916015625,0.03754425048828125,0.13115978240966797,-0.12450678646564484
1712257653224897300,5.316897216796875,-0.12735652923583984,0.14067840576171875,-0.035964302718639374
1712257653234903000,5.326903076171875,-0.3064289093017578,0.14108753204345703,0.0012895390391349792
1712257653244908800,5.33690869140625,-0.36643123626708984,0.16209077835083008,0.014367237687110901
1712257653254914600,5.34691455078125,-0.3749732971191406,0.20447158813476562,0.050078216940164566
1712257653264920300,5.35692041015625,-0.2889518737792969,0.20561647415161133,0.01827205717563629
1712257653274926000,5.366926025390625,-0.1556234359741211,0.17378664016723633,0.004870962351560593
1712257653284931600,5.376931640625,-0.059432029724121094,0.1060481071472168,-0.004607930779457092
1712257653294937300,5.386937255859375,0.012790679931640625,0.09373712539672852,0.0042020827531814575
1712257653304943000,5.396943115234375,-0.008745193481445312,0.1068568229675293,0.04073140025138855
1712257653314948600,5.406948486328125,-0.07097053527832031,0.09374046325683594,0.033975664526224136
1712257653324954400,5.416954345703125,-0.16427040100097656,0.10283279418945312,-0.025736168026924133
1712257653334960000,5.426960205078125,-0.25580310821533203,0.11612462997436523,-0.019592128694057465
1712257653344965600,5.436965576171875,-0.33216285705566406,0.13953590393066406,0.01419120654463768
1712257653354971400,5.446971435546875,-0.3750772476196289,0.13577556610107422,0.034418802708387375
1712257653364977200,5.45697705078125,-0.4136676788330078,0.12938308715820312,-0.009246643632650375
1712257653374982700,5.466982666015625,-0.36354732513427734,0.1350727081298828,0.029385827481746674
1712257653384988400,5.476988525390625,-0.17865943908691406,0.1235647201538086,0.11051149666309357
1712257653394994200,5.486994140625,0.012517929077148438,0.11233758926391602,0.11002247035503387
1712257653404999700,5.496999755859375,0.12622356414794922,0.10879945755004883,0.06574097275733948
1712257653415005400,5.50700537109375,0.07949161529541016,0.1166224479675293,0.016281045973300934
1712257653425011200,5.51701123046875,-0.1490926742553711,0.13191509246826172,-0.08483561128377914
1712257653435016700,5.5270166015625,-0.350677490234375,0.19468402862548828,-0.1503821611404419
1712257653445022500,5.5370224609375,-0.2859935760498047,0.19185829162597656,-0.10742008686065674
1712257653455028200,5.5470283203125,-0.1711578369140625,0.15241003036499023,-0.06652086228132248
1712257653465033700,5.55703369140625,-0.08662986755371094,0.16568517684936523,-0.11543990671634674
1712257653475039500,5.56703955078125,-0.04116058349609375,0.1646132469177246,-0.1423608511686325
1712257653485045200,5.577045166015625,-0.0762796401977539,0.13965415954589844,-0.10057217627763748
1712257653495050800,5.58705078125,-0.115264892578125,0.02519512176513672,-0.06975482404232025
1712257653505056500,5.597056396484375,-0.1203317642211914,-0.017268657684326172,-0.05946402996778488
1712257653515062300,5.607062255859375,-0.17193889617919922,0.015500545501708984,0.0007295496761798859
1712257653525067800,5.61706787109375,-0.1281576156616211,-0.028244495391845703,0.045814625918865204
1712257653535073500,5.627073486328125,-0.02333354949951172,-0.048707008361816406,0.05216873809695244
1712257653545079300,5.637079345703125,0.02846240997314453,0.010319709777832031,0.06238194927573204
1712257653555084800,5.647084716796875,-0.0004930496215820312,0.058676719665527344,0.07774742692708969
1712257653565090600,5.657090576171875,-0.08602142333984375,0.09780359268188477,0.04218960180878639
1712257653575096300,5.667096435546875,-0.13356304168701172,0.1429734230041504,0.021232545375823975
1712257653585101800,5.677101806640625,-0.10122299194335938,0.16085433959960938,0.028015315532684326
1712257653595107600,5.687107666015625,-0.06992244720458984,0.15108633041381836,0.06236942484974861
1712257653605113300,5.69711328125,-0.048964500427246094,0.1469097137451172,0.001760769635438919
1712257653615119000,5.707119140625,0.028203964233398438,0.12388467788696289,-0.03520277887582779
1712257653625124600,5.71712451171875,0.057765960693359375,0.11873674392700195,-0.04360142722725868
1712257653635130400,5.72713037109375,-0.011189460754394531,0.055646419525146484,0.039225876331329346
1712257653645136100,5.73713623046875,-0.03162193298339844,0.011900901794433594,0.0576559379696846
1712257653655141600,5.7471416015625,-0.05172920227050781,0.03951120376586914,0.0029958635568618774
1712257653665147400,5.7571474609375,-0.02002239227294922,0.08603858947753906,-0.0680738091468811
1712257653675153200,5.767153076171875,0.09162139892578125,0.07928133010864258,-0.05858320742845535
1712257653685158700,5.77715869140625,0.08027935028076172,0.04684734344482422,-0.012483589351177216
1712257653695164400,5.787164306640625,-0.08475017547607422,0.0735626220703125,-0.00993124395608902
1712257653705170200,5.797170166015625,-0.21762752532958984,0.10257959365844727,-0.021645478904247284
1712257653715175700,5.80717578125,-0.2391948699951172,0.05916309356689453,-0.0009525157511234283
1712257653725181400,5.817181396484375,-0.1753520965576172,0.006627559661865234,0.04499652981758118
1712257653735187200,5.827187255859375,-0.12252235412597656,0.050139427185058594,0.02170269563794136
1712257653745192700,5.837192626953125,-0.13750648498535156,0.07117748260498047,0.10149049758911133
1712257653755198500,5.847198486328125,-0.1446981430053711,0.08095121383666992,0.12980878353118896
1712257653765204200,5.857204345703125,-0.14021778106689453,0.09021615982055664,0.05650965869426727
1712257653775209700,5.867209716796875,-0.1525249481201172,0.08015012741088867,0.01510581374168396
1712257653785215500,5.877215576171875,-0.1761617660522461,0.07381439208984375,0.04797687381505966
1712257653795221200,5.88722119140625,-0.09232044219970703,0.08846569061279297,0.04014483839273453
1712257653805227000,5.89722705078125,0.07478809356689453,0.10305309295654297,-0.053149182349443436
1712257653815232800,5.907232666015625,0.20235824584960938,0.08292722702026367,-0.07341372966766357
1712257653825238500,5.917238525390625,0.23517322540283203,0.06997060775756836,-0.036998968571424484
1712257653835244300,5.927244384765625,0.13221454620361328,0.06441497802734375,-0.04130938649177551
1712257653845249800,5.937249755859375,0.041388511657714844,0.03371286392211914,-0.03671994060277939
1712257653855255600,5.947255615234375,-0.05237007141113281,0.06899499893188477,0.001252453774213791
1712257653865261300,5.95726123046875,-0.07896709442138672,0.1230616569519043,-0.02610764652490616
1712257653875267000,5.96726708984375,-0.06296634674072266,0.10596132278442383,-0.04195920750498772
1712257653885272800,5.97727294921875,-0.0756521224975586,0.07057857513427734,-0.008979950100183487
1712257653895278600,5.987278564453125,-0.08358192443847656,0.0407562255859375,-0.03645043820142746
1712257653905284400,5.997284423828125,-0.11047649383544922,0.02599954605102539,-0.07256579399108887
1712257653915290000,6.0072900390625,-0.0993490219116211,0.021080970764160156,-0.057182203978300095
1712257653925295900,6.0172958984375,-0.036499977111816406,0.0584406852722168,-0.05713031068444252
1712257653935301400,6.02730126953125,0.016417503356933594,0.061324119567871094,-0.039246369153261185
1712257653945307100,6.03730712890625,0.017560958862304688,0.03909778594970703,0.03855038434267044
1712257653955313000,6.04731298828125,-0.06067466735839844,0.03962087631225586,0.04461256414651871
1712257653965318700,6.057318603515625,-0.16099262237548828,0.05399608612060547,-0.033800750970840454
1712257653975324400,6.067324462890625,-0.23626136779785156,0.07311630249023438,-0.006771497428417206
1712257653985330200,6.077330078125,-0.2162160873413086,0.045014381408691406,0.06336476653814316
1712257653995336000,6.0873359375,-0.16349411010742188,0.04083538055419922,0.038801006972789764
1712257654005341700,6.097341796875,-0.11620426177978516,0.0647130012512207,-0.0038307681679725647
1712257654015347200,6.10734716796875,-0.0931406021118164,0.0691823959350586,0.011018998920917511
1712257654025353000,6.11735302734375,-0.10352706909179688,0.0831751823425293,-0.016452554613351822
1712257654035358700,6.127358642578125,-0.20400333404541016,0.1123957633972168,0.013819679617881775
1712257654045364500,6.137364501953125,-0.21949386596679688,0.1105661392211914,-0.020433876663446426
1712257654055370200,6.147370361328125,-0.1609325408935547,0.08309078216552734,-0.05285709723830223
1712257654065376000,6.1573759765625,0.013735771179199219,0.04772329330444336,-0.0379549004137516
1712257654075381800,6.1673818359375,0.12011051177978516,0.05914497375488281,-0.005335845053195953
1712257654085387500,6.177387451171875,0.06060981750488281,0.05038785934448242,-0.01677335426211357
1712257654095393000,6.18739306640625,0.016655921936035156,0.022233963012695312,-0.03869672492146492
1712257654105398800,6.197398681640625,-0.0217437744140625,0.013208389282226562,-0.009914368391036987
1712257654115404500,6.207404541015625,-0.016963958740234375,0.022902488708496094,0.003446582704782486
1712257654125410300,6.217410400390625,-0.0072917938232421875,0.013155460357666016,-0.020711880177259445
1712257654135416000,6.227416015625,-0.0019159317016601562,0.002593994140625,-0.05715617910027504
1712257654145421800,6.237421875,0.05584526062011719,0.00988912582397461,-0.06341005116701126
1712257654155427600,6.247427490234375,0.09926795959472656,0.04407024383544922,-0.023540284484624863
1712257654165433300,6.257433349609375,0.02008342742919922,0.04853963851928711,0.014119721949100494
1712257654175439000,6.267439208984375,-0.09560489654541016,0.048491477966308594,0.008668892085552216
1712257654185444600,6.277444580078125,-0.13466644287109375,0.0824737548828125,-0.043206848204135895
1712257654195450400,6.287450439453125,-0.055736541748046875,0.1165165901184082,-0.04217313230037689
1712257654205456100,6.2974560546875,0.003620147705078125,0.12077045440673828,-0.030533891171216965
1712257654215462000,6.3074619140625,-0.08286762237548828,0.09955024719238281,-0.007581472396850586
1712257654225467600,6.317467529296875,-0.26658058166503906,0.0830378532409668,0.02621094509959221
1712257654235473400,6.327473388671875,-0.31682682037353516,0.05506563186645508,-0.037937842309474945
1712257654245479200,6.337479248046875,-0.26953887939453125,0.017059803009033203,-0.05758175998926163
1712257654255484700,6.347484619140625,-0.10242176055908203,0.039197444915771484,-0.06219202280044556
1712257654265490400,6.357490478515625,0.15534400939941406,0.04337120056152344,-0.08189495652914047
1712257654275496200,6.36749609375,0.3009490966796875,-0.0003132820129394531,-0.042300332337617874
1712257654285501700,6.377501708984375,0.2949981689453125,0.01067209243774414,-0.014832847751677036
1712257654295507500,6.387507568359375,0.1684246063232422,0.0610198974609375,0.02961346134543419
1712257654305513200,6.39751318359375,0.0213775634765625,0.09480714797973633,0.0448732003569603
1712257654315518700,6.407518798828125,-0.014439582824707031,0.09898185729980469,0.0403701514005661
1712257654325524500,6.4175244140625,0.03541374206542969,0.12138938903808594,0.05725156515836716
1712257654335530200,6.4275302734375,0.09909820556640625,0.13783025741577148,0.08609892427921295
1712257654345535700,6.43753564453125,0.10126495361328125,0.09154796600341797,0.08049693703651428
1712257654355541500,6.44754150390625,-0.0046253204345703125,0.06913995742797852,0.01323020737618208
1712257654365547300,6.45754736328125,-0.13271427154541016,0.052524566650390625,-0.03841510787606239
1712257654375552800,6.467552734375,-0.2504301071166992,0.02400827407836914,-0.10127133131027222
1712257654385558500,6.47755859375,-0.21214675903320312,0.007594585418701172,-0.15956147015094757
1712257654395564300,6.487564208984375,-0.12383460998535156,0.030977725982666016,-0.15372717380523682
1712257654405569800,6.49756982421875,-0.10382747650146484,0.04605388641357422,-0.14211997389793396
1712257654415575600,6.507575439453125,-0.10346603393554688,0.07108926773071289,-0.12025421857833862
1712257654425581300,6.517581298828125,-0.013317108154296875,0.08575868606567383,-0.07955507189035416
1712257654435587000,6.527587158203125,0.09994792938232422,0.1407938003540039,-0.04133744537830353
1712257654445592600,6.537592529296875,0.12790393829345703,0.13620328903198242,0.011091714724898338
1712257654455598300,6.547598388671875,0.03387260437011719,0.09252214431762695,0.0069049447774887085
1712257654465604000,6.55760400390625,-0.08706188201904297,0.07346725463867188,-0.028409212827682495
1712257654475609600,6.567609619140625,-0.13150310516357422,0.04672384262084961,-0.04610717296600342
1712257654485615400,6.577615478515625,-0.0581817626953125,0.04511690139770508,0.011201543733477592
1712257654495621000,6.58762109375,-0.04300880432128906,0.03011798858642578,0.08724340796470642
1712257654505626600,6.597626708984375,-0.06666946411132812,0.021576881408691406,0.04577908664941788
1712257654515632400,6.60763232421875,-0.10080718994140625,0.029685020446777344,-0.031374938786029816
1712257654525638100,6.61763818359375,0.043473243713378906,0.039423465728759766,-0.03603683412075043
1712257654535643600,6.6276435546875,0.19969558715820312,0.02981710433959961,-0.00281665101647377
1712257654545649400,6.6376494140625,0.2888507843017578,-0.005551815032958984,0.016251377761363983
1712257654555655200,6.6476552734375,0.22318458557128906,-0.03897857666015625,0.016576480120420456
1712257654565660700,6.65766064453125,0.023464202880859375,-0.04589557647705078,-0.006025303155183792
1712257654575666400,6.66766650390625,-0.12070560455322266,0.012515544891357422,-0.03177125006914139
1712257654585672200,6.677672119140625,-0.14486980438232422,0.03717184066772461,-0.032273661345243454
1712257654595677700,6.687677734375,-0.10763740539550781,0.033519744873046875,-0.05558464303612709
1712257654605683500,6.697683349609375,-0.06171607971191406,0.01127004623413086,-0.03587939590215683
1712257654615689200,6.707689208984375,-0.07300472259521484,0.008135795593261719,0.0066594332456588745
1712257654625694700,6.71769482421875,-0.10769462585449219,0.019266128540039062,-0.01827188953757286
1712257654635700500,6.727700439453125,-0.1185302734375,0.011816978454589844,-0.028938934206962585
1712257654645706200,6.737706298828125,-0.10575199127197266,0.018793582916259766,-0.001385558396577835
1712257654655711700,6.747711669921875,-0.15446090698242188,0.021031856536865234,0.027511179447174072
1712257654665717500,6.757717529296875,-0.16983985900878906,0.033354759216308594,0.015099827200174332
1712257654675723300,6.76772314453125,-0.12429428100585938,0.041647911071777344,0.021878033876419067
1712257654685728800,6.777728759765625,-0.027711868286132812,0.06863927841186523,0.07079148292541504
1712257654695734500,6.787734619140625,0.04896831512451172,0.08959341049194336,0.04820656776428223
1712257654705740300,6.797740234375,0.06403446197509766,0.07583332061767578,-0.013185657560825348
1712257654715745800,6.807745849609375,0.037296295166015625,0.05627584457397461,-0.01874212548136711
1712257654725751600,6.81775146484375,0.0067386627197265625,0.06459522247314453,-0.006446380168199539
1712257654735757300,6.82775732421875,-0.018209457397460938,0.04391193389892578,0.009333394467830658
1712257654745762800,6.8377626953125,-0.06638908386230469,0.03787565231323242,0.03449920192360878
1712257654755768600,6.8477685546875,-0.11442184448242188,0.047121524810791016,0.03649431839585304
1712257654765774300,6.8577744140625,-0.13931560516357422,0.04872941970825195,0.02044578641653061
1712257654775780000,6.867780029296875,-0.08501243591308594,0.05704021453857422,-0.008472904562950134
1712257654785785900,6.877785888671875,0.005444526672363281,0.0567622184753418,-0.02200491353869438
1712257654795791400,6.887791259765625,0.028528213500976562,0.02815103530883789,0.021170184016227722
1712257654805797000,6.897797119140625,0.018599510192871094,0.008907794952392578,0.01104196161031723
1712257654815803000,6.907802978515625,0.04712486267089844,0.02669048309326172,-0.015641048550605774
1712257654825808600,6.91780859375,0.01951313018798828,0.042860984802246094,-0.03512603044509888
1712257654835814400,6.927814453125,-0.06319141387939453,0.03372812271118164,-0.013640020042657852
1712257654845820200,6.937820068359375,-0.14893531799316406,0.0243072509765625,-0.016917817294597626
1712257654855826000,6.947825927734375,-0.2054729461669922,0.025246620178222656,-0.02992522343993187
1712257654865831700,6.957831787109375,-0.24332904815673828,0.042046546936035156,-0.06544336676597595
1712257654875837400,6.96783740234375,-0.18755245208740234,0.050988197326660156,-0.04661325365304947
1712257654885843000,6.977843017578125,-0.11001873016357422,0.0469670295715332,-0.01099589467048645
1712257654895848700,6.9878486328125,-0.015404701232910156,0.053132057189941406,0.007127784192562103
1712257654905854500,6.9978544921875,-0.04017066955566406,0.026320934295654297,0.022919200360774994
1712257654915860200,7.007860107421875,-0.007922172546386719,0.0044918060302734375,0.011103257536888123
1712257654925866000,7.017865966796875,0.042969703674316406,0.02017354965209961,0.01675490289926529
1712257654935871700,7.027871826171875,-0.028951644897460938,0.044312477111816406,0.048847004771232605
1712257654945877500,7.03787744140625,-0.1136331558227539,0.05366039276123047,0.037819184362888336
1712257654955883300,7.04788330078125,-0.18770694732666016,0.053781986236572266,0.05080278962850571
1712257654965888800,7.057888671875,-0.2141265869140625,0.03611612319946289,0.022034667432308197
1712257654975894500,7.06789453125,-0.18892669677734375,0.02441263198852539,0.051407814025878906
1712257654985900300,7.077900390625,-0.1598367691040039,0.022929668426513672,0.05368996411561966
1712257654995906000,7.087906005859375,-0.0889749526977539,0.026350975036621094,0.04772969335317612
1712257655005911800,7.097911865234375,-0.03807544708251953,0.03433704376220703,0.01890511065721512
1712257655015917600,7.10791748046875,0.07828998565673828,0.05570840835571289,-0.01044408231973648
1712257655025923300,7.11792333984375,0.24542236328125,0.07533121109008789,-0.005603089928627014
1712257655035929000,7.12792919921875,0.18006515502929688,0.06951045989990234,-0.01808662712574005
1712257655045934600,7.1379345703125,0.0744619369506836,0.08095502853393555,-0.09176116436719894
1712257655055940400,7.1479404296875,0.0796804428100586,0.07214832305908203,-0.14505597949028015
1712257655065946000,7.157946044921875,0.1323995590209961,0.03444099426269531,-0.18830756843090057
1712257655075951900,7.167951904296875,0.10893058776855469,0.06327295303344727,-0.2420382797718048
1712257655085957600,7.17795751953125,-0.23508262634277344,0.026836395263671875,-0.15920138359069824
1712257655095963400,7.18796337890625,-0.12269115447998047,-0.0115966796875,-0.18270552158355713
1712257655105969200,7.19796923828125,0.033722877502441406,-0.028621196746826172,-0.07587052881717682
1712257655115975000,7.207974853515625,0.10245609283447266,0.0069637298583984375,0.009057857096195221
1712257655125980400,7.21798046875,0.08603477478027344,0.007771968841552734,0.009861215949058533
1712257655135986200,7.227986083984375,0.061753273010253906,-0.01708078384399414,0.032768599689006805
1712257655145992000,7.237991943359375,0.020071983337402344,-0.00551605224609375,0.019245266914367676
1712257655155997700,7.247997802734375,-0.00623321533203125,0.014399528503417969,0.019842714071273804
1712257655166003500,7.25800341796875,-0.012874603271484375,0.08046388626098633,0.01507405936717987
1712257655176009200,7.26800927734375,-0.028540611267089844,0.10262060165405273,0.03787832707166672
1712257655186015000,7.278014892578125,-0.048699378967285156,0.11037778854370117,0.03565053641796112
1712257655196020700,7.288020751953125,-0.11620616912841797,0.10013771057128906,0.0748927891254425
1712257655206026500,7.298026611328125,-0.2072916030883789,0.05894327163696289,0.07220461219549179
1712257655216032000,7.308031982421875,-0.2512216567993164,0.039539337158203125,0.010934129357337952
1712257655226037800,7.318037841796875,-0.17781448364257812,0.03161954879760742,-0.009499434381723404
1712257655236043500,7.32804345703125,-0.1720428466796875,-0.0036368370056152344,0.009700961410999298
1712257655246049300,7.33804931640625,-0.2752113342285156,-0.056269168853759766,-0.010361531749367714
1712257655256054800,7.3480546875,-0.2544898986816406,-0.06050586700439453,0.03093727119266987
1712257655266060500,7.358060546875,-0.1867046356201172,-0.027442455291748047,0.10361434519290924
1712257655276066300,7.36806640625,-0.1900014877319336,-0.01943206787109375,0.08473268151283264
1712257655286071800,7.37807177734375,-0.13105106353759766,-0.0317845344543457,0.10268449783325195
1712257655296077600,7.38807763671875,-0.047829627990722656,0.01946878433227539,0.12268558144569397
1712257655306083300,7.398083251953125,0.12024402618408203,0.09585762023925781,-0.007052510976791382
1712257655316088800,7.4080888671875,0.2628641128540039,0.1505575180053711,-0.061195820569992065
1712257655326094600,7.418094482421875,0.3567028045654297,0.18881750106811523,0.01827467978000641
1712257655336100400,7.428100341796875,0.2558612823486328,0.2074422836303711,0.015863247215747833
1712257655346105900,7.43810595703125,0.10804176330566406,0.19045257568359375,-0.09561420977115631
1712257655356111600,7.448111572265625,0.05917072296142578,0.17277812957763672,-0.14220502972602844
1712257655366117400,7.458117431640625,0.027263641357421875,0.13140392303466797,-0.09904991090297699
1712257655376123000,7.468122802734375,-0.01578044891357422,0.06141090393066406,-0.053525716066360474
1712257655386128600,7.478128662109375,0.015932083129882812,-0.009949207305908203,-0.03667396306991577
1712257655396134400,7.488134521484375,0.0897216796875,-0.056838035583496094,0.0267019160091877
1712257655406140000,7.498139892578125,0.08370399475097656,-0.11462831497192383,0.040148600935935974
1712257655416145700,7.508145751953125,0.08476543426513672,-0.10440540313720703,0.0264267735183239
1712257655426151400,7.5181513671875,0.08405685424804688,-0.05669260025024414,0.02650592103600502
1712257655436157000,7.528156982421875,0.0626535415649414,-0.01902484893798828,-0.007840707898139954
1712257655446162700,7.53816259765625,0.07198524475097656,0.005195140838623047,-0.043910786509513855
1712257655456168400,7.54816845703125,0.02109050750732422,0.008353233337402344,-0.025550737977027893
1712257655466174200,7.55817431640625,-0.09026813507080078,0.030481338500976562,-0.055209673941135406
1712257655476179700,7.5681796875,-0.1961965560913086,0.02583599090576172,-0.04052590951323509
1712257655486185500,7.578185546875,-0.23169898986816406,0.05737781524658203,-0.10349784791469574
1712257655496191200,7.588191162109375,-0.21718788146972656,0.09214258193969727,-0.13591544330120087
1712257655506196700,7.59819677734375,-0.1439800262451172,0.1298971176147461,-0.13014721870422363
1712257655516202500,7.608202392578125,-0.026519775390625,0.14599990844726562,-0.12550435960292816
1712257655526208300,7.618208251953125,0.11694622039794922,0.1198892593383789,-0.1416977196931839
1712257655536213800,7.6282138671875,0.19785404205322266,0.0784292221069336,-0.08920357376337051
1712257655546219500,7.638219482421875,0.18024730682373047,0.03966951370239258,0.0033402033150196075
1712257655556225300,7.648225341796875,0.12199687957763672,0.03225278854370117,0.008411101996898651
1712257655566230800,7.658230712890625,0.07082080841064453,0.0227813720703125,0.012873384170234203
1712257655576236500,7.668236572265625,-0.0020322799682617188,0.02131938934326172,0.017777487635612488
1712257655586242300,7.6782421875,-0.10639381408691406,-0.013422489166259766,0.024511992931365967
1712257655596247800,7.688247802734375,-0.19072437286376953,-0.023165225982666016,0.04884360730648041
1712257655606253600,7.698253662109375,-0.18535137176513672,-0.02149677276611328,0.0390850305557251
1712257655616259300,7.70825927734375,-0.1579141616821289,-0.012970924377441406,0.032898470759391785
1712257655626264800,7.718264892578125,-0.15569591522216797,-0.03563356399536133,0.05426232889294624
1712257655636270600,7.7282705078125,-0.14513778686523438,-0.051555633544921875,0.10802646726369858
1712257655646276400,7.7382763671875,-0.10725021362304688,-0.06128358840942383,0.09398780018091202
1712257655656281900,7.74828173828125,-0.09405040740966797,-0.04172515869140625,0.06826169788837433
1712257655666287600,7.75828759765625,-0.0862283706665039,-0.016998767852783203,0.034686129540205
1712257655676293400,7.76829345703125,-0.09310626983642578,0.012804985046386719,0.0068630650639534
1712257655686299000,7.778298828125,-0.1002960205078125,0.08055782318115234,0.0040311142802238464
1712257655696304600,7.7883046875,-0.07919883728027344,0.11447906494140625,0.011927157640457153
1712257655706310400,7.798310302734375,0.0030422210693359375,0.11452722549438477,-0.008695006370544434
1712257655716316000,7.80831591796875,0.08458518981933594,0.11824798583984375,0.0017794668674468994
1712257655726321700,7.81832177734375,0.1703777313232422,0.09690523147583008,0.01840001344680786
1712257655736327400,7.828327392578125,0.2371673583984375,0.10210180282592773,0.04562699794769287
1712257655746333000,7.8383330078125,0.20517444610595703,0.05814933776855469,0.07004930078983307
1712257655756338700,7.848338623046875,0.1225738525390625,-0.009733200073242188,0.03513693809509277
1712257655766344400,7.858344482421875,0.027039527893066406,-0.04334735870361328,0.002724170684814453
1712257655776350000,7.868349853515625,-0.05824851989746094,-0.02819204330444336,-0.007539629936218262
1712257655786355700,7.878355712890625,-0.13821792602539062,-0.012001514434814453,-0.027023762464523315
1712257655796361500,7.888361572265625,-0.08094310760498047,0.00023221969604492188,-0.0506596565246582
1712257655806367200,7.8983671875,0.055510520935058594,0.016767501831054688,-0.08008995652198792
1712257655816373000,7.908373046875,0.23790740966796875,0.059343814849853516,-0.04143637418746948
1712257655826378800,7.918378662109375,0.33450889587402344,0.09789609909057617,-0.016019105911254883
1712257655836384500,7.928384521484375,0.2998313903808594,0.09927177429199219,-0.0271395742893219
1712257655846390300,7.938390380859375,0.14004135131835938,0.11239290237426758,-0.030928507447242737
1712257655856396000,7.94839599609375,-0.012024879455566406,0.1106414794921875,-0.03019610047340393
1712257655866401500,7.958401611328125,-0.1245574951171875,0.07708311080932617,-0.05218113958835602
1712257655876407300,7.9684072265625,-0.2222909927368164,0.03194999694824219,-0.038894861936569214
1712257655886413000,7.9784130859375,-0.23023509979248047,-0.024384021759033203,-0.013465777039527893
1712257655896418800,7.988418701171875,-0.1731119155883789,-0.04045581817626953,-0.00918637216091156
1712257655906424600,7.998424560546875,-0.07962894439697266,-0.013258934020996094,-0.00804804265499115
