time,seconds_elapsed,z,y,x
1712257406280780300,0.0437802734375,0,0,0
1712257406290780400,0.053780517578125,-0.0864858627319336,-0.028101444244384766,0.07642346620559692
1712257406300781000,0.063781005859375,-0.15703964233398438,-0.06570172309875488,0.10477644205093384
1712257406310782500,0.073782470703125,-0.11791515350341797,-0.0739293098449707,-0.012638211250305176
1712257406320784400,0.083784423828125,0.009754180908203125,-0.07504105567932129,-0.27387556433677673
1712257406330787300,0.093787353515625,0.26935863494873047,-0.0879971981048584,-0.5158213376998901
1712257406340791300,0.103791259765625,0.5503387451171875,-0.09050250053405762,-0.7276380062103271
1712257406350796500,0.113796630859375,0.7672996520996094,0.004119873046875,-0.8037455081939697
1712257406360802600,0.123802490234375,0.9567327499389648,0.07673525810241699,-0.728576123714447
1712257406370809600,0.1338095703125,1.01177978515625,0.06821703910827637,-0.6454015374183655
1712257406380817700,0.143817626953125,0.8396949768066406,0.05598330497741699,-0.5235269665718079
1712257406390826500,0.153826416015625,0.46369075775146484,0.016919851303100586,-0.3000093698501587
1712257406400836000,0.163836181640625,0.11348533630371094,-0.09401750564575195,-0.011943846940994263
1712257406410846200,0.17384619140625,-0.049025535583496094,-0.2396247386932373,0.19648399949073792
1712257406420856600,0.183856689453125,-0.007298469543457031,-0.3368649482727051,0.25330302119255066
1712257406430867000,0.193866943359375,-0.03915214538574219,-0.3513929843902588,0.04036663472652435
1712257406440876800,0.203876708984375,-0.00151824951171875,-0.17730236053466797,-0.2407202124595642
1712257406450882800,0.2138828125,0.09323406219482422,0.07125639915466309,-0.42503708600997925
1712257406460888800,0.223888916015625,0.05187797546386719,0.17973113059997559,-0.49996715784072876
1712257406470894600,0.23389453125,-0.09592628479003906,0.10892701148986816,-0.5662696957588196
1712257406480900600,0.243900634765625,-0.39167022705078125,-0.02302241325378418,-0.5502550005912781
1712257406490906600,0.25390673828125,-0.5970926284790039,-0.14476442337036133,-0.26586252450942993
1712257406500912600,0.26391259765625,-0.8041696548461914,-0.2153463363647461,0.07268571853637695
1712257406510918700,0.273918701171875,-1.0830583572387695,-0.22568035125732422,0.28577083349227905
1712257406520924700,0.283924560546875,-1.3452520370483398,-0.2305593490600586,0.31342071294784546
1712257406530930700,0.2939306640625,-1.5283145904541016,-0.20029735565185547,0.22488969564437866
1712257406540936700,0.303936767578125,-1.626821517944336,-0.12535905838012695,0.22155526280403137
1712257406550942700,0.313942626953125,-1.5194997787475586,-0.07562136650085449,0.20320388674736023
1712257406560948500,0.323948486328125,-1.1664676666259766,-0.018616676330566406,-0.04820914566516876
1712257406570954500,0.33395458984375,-0.7640953063964844,0.05314517021179199,-0.2915803790092468
1712257406580960500,0.34396044921875,-0.38617515563964844,0.13674426078796387,-0.34558969736099243
1712257406590966500,0.353966552734375,-0.10880851745605469,0.15898394584655762,-0.21912282705307007
1712257406600972500,0.36397265625,0.02126598358154297,0.10073614120483398,-0.046405792236328125
1712257406610978600,0.373978515625,0.1438617706298828,0.018242359161376953,0.17047861218452454
1712257406620984600,0.383984619140625,0.2690706253051758,-0.05691361427307129,0.39696797728538513
1712257406630990600,0.393990478515625,0.27163219451904297,-0.07964181900024414,0.4750533998012543
1712257406640996600,0.40399658203125,0.1455059051513672,-0.009479761123657227,0.3436841666698456
1712257406651002600,0.414002685546875,-0.05987548828125,0.09648990631103516,0.15262934565544128
1712257406661008400,0.42400830078125,-0.21729183197021484,0.12247920036315918,0.019857734441757202
1712257406671014400,0.434014404296875,-0.3006467819213867,0.08620429039001465,-0.0324120819568634
1712257406681020400,0.4440205078125,-0.2418651580810547,0.06893587112426758,-0.12332219630479813
1712257406691026400,0.4540263671875,-0.13751697540283203,0.04644155502319336,-0.20940975844860077
1712257406701032400,0.464032470703125,-0.1333026885986328,0.04641008377075195,-0.24784424901008606
1712257406711038500,0.47403857421875,-0.1943807601928711,0.031507253646850586,-0.18342918157577515
1712257406721044500,0.48404443359375,-0.2683372497558594,-0.010604619979858398,-0.006555795669555664
1712257406731050500,0.494050537109375,-0.2754850387573242,-0.018198728561401367,0.1431063413619995
1712257406741056500,0.504056396484375,-0.26888465881347656,0.012845516204833984,0.24433879554271698
1712257406751062500,0.5140625,-0.2017383575439453,0.015600442886352539,0.20781540870666504
1712257406761068300,0.524068359375,-0.18314743041992188,0.08476996421813965,0.1561015546321869
1712257406771074300,0.53407421875,-0.13692569732666016,0.12484049797058105,0.05231982469558716
1712257406781080300,0.544080322265625,-0.06801986694335938,0.1497058868408203,-0.051084354519844055
1712257406791086300,0.55408642578125,0.014232635498046875,0.14886713027954102,-0.008636802434921265
1712257406801092400,0.56409228515625,0.05822467803955078,0.08440065383911133,-0.029695242643356323
1712257406811098400,0.574098388671875,0.03175830841064453,0.03766512870788574,-0.2510470449924469
1712257406821104400,0.5841044921875,0.07268047332763672,0.04529619216918945,-0.3648150861263275
1712257406831110400,0.5941103515625,0.10949993133544922,0.02542400360107422,-0.2620275914669037
1712257406841116400,0.604116455078125,0.10930538177490234,0.0019435882568359375,-0.130830779671669
1712257406851122200,0.6141220703125,-0.01724529266357422,-0.018892526626586914,-0.05814415216445923
1712257406861128400,0.62412841796875,-0.14188671112060547,-0.07233524322509766,0.08694928884506226
1712257406871134500,0.634134521484375,-0.2749519348144531,-0.1036684513092041,0.2756287157535553
1712257406881140500,0.644140380859375,-0.4215726852416992,-0.12074947357177734,0.31804144382476807
1712257406891146500,0.654146484375,-0.45488452911376953,-0.07518720626831055,0.23037591576576233
1712257406901152500,0.664152587890625,-0.27770137786865234,-0.024846553802490234,0.12098428606987
1712257406911158500,0.674158447265625,-0.01493072509765625,-0.0005249977111816406,-0.06274421513080597
1712257406921164500,0.68416455078125,0.13992786407470703,0.019137859344482422,-0.356723427772522
1712257406931170600,0.694170654296875,0.14233112335205078,0.031914472579956055,-0.5995967388153076
1712257406941176600,0.704176513671875,-0.00980377197265625,0.004480123519897461,-0.6115407943725586
1712257406951182600,0.7141826171875,-0.15423965454101562,-0.08489012718200684,-0.4230566620826721
1712257406961188900,0.72418896484375,-0.23985004425048828,-0.1252274513244629,-0.24467703700065613
1712257406971195000,0.73419482421875,-0.1787109375,-0.09215879440307617,-0.10850977152585983
1712257406981201000,0.744200927734375,-0.039320945739746094,-0.024095773696899414,-0.02899859845638275
1712257406991207000,0.75420703125,0.012513160705566406,0.08231997489929199,-0.07302191853523254
1712257407001213000,0.764212890625,-0.01220703125,0.1648709774017334,-0.13946788012981415
1712257407011219000,0.774218994140625,-0.060645103454589844,0.17749714851379395,-0.2358558028936386
1712257407021225000,0.784224853515625,0.013680458068847656,0.13012170791625977,-0.24508266150951385
1712257407031231000,0.79423095703125,0.1242837905883789,0.10720562934875488,-0.08032816648483276
1712257407041237000,0.804237060546875,0.1530904769897461,0.09337806701660156,0.07722589373588562
1712257407051243000,0.814242919921875,0.13938522338867188,0.06885623931884766,0.10524478554725647
1712257407061249300,0.824249267578125,0.1311178207397461,0.03344011306762695,0.07994946837425232
1712257407071255300,0.83425537109375,0.09531879425048828,0.024895429611206055,0.061700284481048584
1712257407081261300,0.84426123046875,0.046309471130371094,0.04838991165161133,0.05410659313201904
1712257407091267300,0.854267333984375,0.021927833557128906,0.037756919860839844,0.04147541522979736
1712257407101273300,0.8642734375,-0.0393524169921875,0.021721839904785156,-0.0020924508571624756
1712257407111279400,0.874279296875,-0.1557474136352539,0.00027751922607421875,0.004922330379486084
1712257407121285400,0.884285400390625,-0.2889595031738281,-0.025693178176879883,0.058155566453933716
1712257407131291400,0.89429150390625,-0.4344501495361328,-0.06886410713195801,0.12407132983207703
1712257407141297400,0.90429736328125,-0.46990203857421875,-0.11855530738830566,0.20699843764305115
1712257407151303400,0.914303466796875,-0.3782835006713867,-0.11356401443481445,0.311653196811676
1712257407161309700,0.924309814453125,-0.14731216430664062,-0.041684865951538086,0.3312765657901764
1712257407171315700,0.934315673828125,0.18372154235839844,0.03729367256164551,0.2012651264667511
1712257407181321700,0.94432177734375,0.3548727035522461,0.08835601806640625,-0.06905326247215271
1712257407191327700,0.95432763671875,0.35007667541503906,0.13525390625,-0.2944783568382263
1712257407201333800,0.964333740234375,0.29915904998779297,0.17405319213867188,-0.37638014554977417
1712257407211339800,0.97433984375,0.16492080688476562,0.15406584739685059,-0.33632391691207886
1712257407221345800,0.984345703125,-0.004627227783203125,0.08714652061462402,-0.1859360933303833
1712257407231351800,0.994351806640625,-0.09639167785644531,-0.015145063400268555,0.009224653244018555
1712257407241357800,1.00435791015625,-0.09309101104736328,-0.08103418350219727,0.14731872081756592
1712257407251363800,1.01436376953125,-0.12324810028076172,-0.07395529747009277,0.10088151693344116
1712257407261370000,1.0243701171875,-0.1721963882446289,-0.028052091598510742,0.028478413820266724
1712257407271376100,1.034376220703125,-0.16440486907958984,0.018671274185180664,0.06768620014190674
1712257407281382100,1.044382080078125,-0.04414176940917969,0.0798184871673584,0.11282125115394592
1712257407291388200,1.05438818359375,0.09289264678955078,0.149552583694458,0.015845656394958496
1712257407301394200,1.064394287109375,0.1573934555053711,0.179398775100708,-0.09004293382167816
1712257407311400200,1.074400146484375,0.20729446411132812,0.1692638397216797,-0.09540650248527527
1712257407321406200,1.08440625,0.28060054779052734,0.14757108688354492,-0.06521083414554596
1712257407331412200,1.094412109375,0.45740509033203125,0.09417581558227539,0.12032730877399445
1712257407341418200,1.104418212890625,0.5434627532958984,0.003466367721557617,0.1417893022298813
1712257407351424300,1.11442431640625,0.46976280212402344,-0.04859471321105957,-0.029537200927734375
1712257407361430500,1.124430419921875,0.2998008728027344,-0.05194568634033203,-0.10388362407684326
1712257407371436500,1.1344365234375,0.0721597671508789,-0.03828907012939453,-0.053538233041763306
1712257407381442600,1.144442626953125,-0.1281108856201172,-0.05302691459655762,0.04042479395866394
1712257407391448600,1.154448486328125,-0.28780174255371094,-0.07548356056213379,0.12068738043308258
1712257407401454600,1.16445458984375,-0.45526123046875,-0.14142417907714844,-0.021953098475933075
1712257407411460600,1.174460693359375,-0.5318241119384766,-0.16906189918518066,-0.3063109219074249
1712257407421466600,1.184466552734375,-0.5331459045410156,-0.14960670471191406,-0.4639439582824707
1712257407431472600,1.19447265625,-0.5686960220336914,-0.06531715393066406,-0.39984047412872314
1712257407441478700,1.204478759765625,-0.6049652099609375,0.016788959503173828,-0.24531985819339752
1712257407451484700,1.214484619140625,-0.5569953918457031,0.08672833442687988,-0.17480024695396423
1712257407461491000,1.224490966796875,-0.39739227294921875,0.11488080024719238,-0.20371383428573608
1712257407471497000,1.2344970703125,-0.23566341400146484,0.0812540054321289,-0.18310631811618805
1712257407481503000,1.2445029296875,-0.1609506607055664,0.056427717208862305,-0.08719352632761002
1712257407491508700,1.2545087890625,-0.12952041625976562,0.04043292999267578,0.04750038683414459
1712257407501514800,1.2645146484375,-0.0888204574584961,0.06586933135986328,0.22243039309978485
1712257407511520800,1.274520751953125,-0.038974761962890625,0.10358381271362305,0.26022714376449585
1712257407521526800,1.28452685546875,-0.1450338363647461,0.10188746452331543,0.044009432196617126
1712257407531532800,1.29453271484375,-0.3767528533935547,0.11503887176513672,-0.15074019134044647
1712257407541538800,1.304538818359375,-0.44550323486328125,0.09777379035949707,-0.17179396748542786
1712257407551544800,1.314544921875,-0.4720754623413086,0.051668405532836914,-0.1322770118713379
1712257407561550800,1.32455078125,-0.3771333694458008,0.0007317066192626953,-0.00877506285905838
1712257407571556900,1.334556884765625,-0.21407318115234375,-0.03729963302612305,0.1503036618232727
1712257407581563000,1.34456298828125,-0.035201072692871094,-0.07851982116699219,0.25539928674697876
1712257407591568600,1.354568603515625,0.13152122497558594,-0.11030769348144531,0.31736016273498535
1712257407601574700,1.36457470703125,0.2254323959350586,-0.07729172706604004,0.31239935755729675
1712257407611580700,1.37458056640625,0.29497623443603516,-0.004490852355957031,0.24037879705429077
1712257407621586700,1.384586669921875,0.27473926544189453,0.04592633247375488,0.04519546777009964
1712257407631592700,1.3945927734375,0.16604328155517578,0.08424139022827148,-0.23818977177143097
1712257407641598700,1.4045986328125,0.007755279541015625,0.13498711585998535,-0.45837604999542236
1712257407651604700,1.414604736328125,-0.17156314849853516,0.10053777694702148,-0.44217655062675476
1712257407661610800,1.42461083984375,-0.24003028869628906,0.006724119186401367,-0.18360555171966553
1712257407671616800,1.43461669921875,-0.24658584594726562,-0.09367704391479492,0.0841694176197052
1712257407681622800,1.444622802734375,-0.18752670288085938,-0.15828347206115723,0.25545236468315125
1712257407691628500,1.454628662109375,-0.08278274536132812,-0.12648558616638184,0.30896812677383423
1712257407701634600,1.464634521484375,0.048267364501953125,-0.056978464126586914,0.19309279322624207
1712257407711640600,1.474640625,0.1253824234008789,0.030101299285888672,0.0033393651247024536
1712257407721646600,1.484646484375,0.24864673614501953,0.10533976554870605,-0.1889030486345291
1712257407731652600,1.494652587890625,0.3518095016479492,0.14413046836853027,-0.3703609108924866
1712257407741658600,1.50465869140625,0.31775569915771484,0.16513538360595703,-0.49365225434303284
1712257407751664600,1.51466455078125,0.1343679428100586,0.1317591667175293,-0.4125150740146637
1712257407761670700,1.524670654296875,-0.04559612274169922,0.07903409004211426,-0.2093808352947235
1712257407771676700,1.5346767578125,-0.23699283599853516,0.03277587890625,0.00014045089483261108
1712257407781682700,1.5446826171875,-0.37421607971191406,-0.015079021453857422,0.18212094902992249
1712257407791688400,1.5546884765625,-0.43492984771728516,-0.04008793830871582,0.29475051164627075
1712257407801694500,1.564694580078125,-0.3260927200317383,-0.03832221031188965,0.338379442691803
1712257407811700500,1.574700439453125,-0.21954631805419922,-0.0068891048431396484,0.28460246324539185
1712257407821706500,1.58470654296875,-0.1196136474609375,0.04332685470581055,0.0830385759472847
1712257407831712500,1.59471240234375,-0.0022954940795898438,0.059253692626953125,-0.15599212050437927
1712257407841718500,1.604718505859375,0.07590866088867188,0.05472540855407715,-0.2757173180580139
1712257407851724500,1.614724609375,0.13466835021972656,0.05304861068725586,-0.285955011844635
1712257407861730600,1.62473046875,0.10851097106933594,0.03495454788208008,-0.22564592957496643
1712257407871736600,1.634736572265625,0.022149085998535156,0.02494502067565918,-0.11859438568353653
1712257407881742300,1.644742431640625,-0.07194900512695312,0.023756742477416992,0.03160877525806427
1712257407891748600,1.65474853515625,-0.1269969940185547,0.008857965469360352,0.18808339536190033
1712257407901754600,1.664754638671875,-0.12038326263427734,-0.023473024368286133,0.28533780574798584
1712257407911760600,1.6747607421875,-0.07208824157714844,-0.025482892990112305,0.2572726905345917
1712257407921766700,1.6847666015625,-0.06761741638183594,-0.002192258834838867,0.1241268664598465
1712257407931772700,1.694772705078125,-0.0262298583984375,0.06031632423400879,-0.09531337022781372
1712257407941778700,1.70477880859375,0.07516765594482422,0.08098292350769043,-0.2936031222343445
1712257407951784700,1.71478466796875,0.17463207244873047,0.07857346534729004,-0.2923365533351898
1712257407961790700,1.724790771484375,0.3149423599243164,0.04758739471435547,-0.16351163387298584
1712257407971796700,1.734796630859375,0.4394254684448242,0.04343080520629883,-0.06787324696779251
1712257407981802800,1.744802734375,0.47335052490234375,0.05996298789978027,-0.005677923560142517
1712257407991809000,1.75480908203125,0.4605865478515625,0.06867790222167969,0.09321805834770203
1712257408001815000,1.76481494140625,0.4160499572753906,0.055567264556884766,0.13795721530914307
1712257408011821000,1.774821044921875,0.28824901580810547,0.012262344360351562,0.11017966270446777
1712257408021827000,1.7848271484375,0.13468456268310547,-0.0407259464263916,0.09545578062534332
1712257408031833000,1.7948330078125,-0.040099143981933594,-0.06380271911621094,0.06508809328079224
1712257408041839000,1.804839111328125,-0.1468353271484375,-0.03705883026123047,-0.04566764086484909
1712257408051845000,1.81484521484375,-0.16326332092285156,-0.008010149002075195,-0.15928786993026733
1712257408061851100,1.82485107421875,-0.10020923614501953,-0.009942293167114258,-0.1815565675497055
1712257408071857200,1.834857177734375,-0.024517059326171875,0.0035669803619384766,-0.12324804067611694
1712257408081863200,1.84486328125,0.026296615600585938,0.04059433937072754,-0.03716995567083359
1712257408091869400,1.854869384765625,0.06719112396240234,0.04295945167541504,0.016249626874923706
1712257408101875500,1.86487548828125,0.10804271697998047,0.048020124435424805,0.0380801260471344
1712257408111881500,1.874881591796875,0.1347808837890625,0.04621577262878418,0.08858852833509445
1712257408121887500,1.884887451171875,0.10534954071044922,0.06571602821350098,0.0668465867638588
1712257408131893500,1.8948935546875,0.04880714416503906,0.05947995185852051,0.025653250515460968
1712257408141899500,1.9048994140625,-0.03452110290527344,0.04245948791503906,0.011926166713237762
1712257408151905500,1.914905517578125,-0.17744731903076172,0.025136470794677734,-0.00785014033317566
1712257408161911600,1.92491162109375,-0.30878448486328125,0.013502120971679688,-0.05695374310016632
1712257408171917600,1.93491748046875,-0.4102773666381836,0.017961978912353516,-0.1292421668767929
1712257408181923600,1.944923583984375,-0.4827737808227539,0.0062677860260009766,-0.1341833472251892
1712257408191929900,1.954929931640625,-0.47991180419921875,-0.020638465881347656,-0.10078825056552887
1712257408201936000,1.964935791015625,-0.3085775375366211,-0.034850358963012695,-0.01958901435136795
1712257408211942000,1.97494189453125,-0.0933828353881836,-0.014803171157836914,0.0043159425258636475
1712257408221948000,1.984947998046875,0.13273239135742188,0.04621076583862305,-0.0011431053280830383
1712257408231954000,1.994953857421875,0.32303714752197266,0.08473682403564453,0.044306278228759766
1712257408241960000,2.0049599609375,0.33724308013916016,0.10007452964782715,0.06876079738140106
1712257408251966000,2.014966064453125,0.2252063751220703,0.08368039131164551,0.06328031420707703
1712257408261972000,2.024971923828125,0.03085613250732422,0.03294181823730469,0.10052397847175598
1712257408271978000,2.03497802734375,-0.10377883911132812,-0.012250900268554688,0.16778597235679626
1712257408281984000,2.04498388671875,-0.18476581573486328,-0.027372360229492188,0.042806968092918396
1712257408291990300,2.054990234375,-0.21793270111083984,0.0019021034240722656,-0.10785578191280365
1712257408301996300,2.064996337890625,-0.18529033660888672,0.018531322479248047,-0.1252530813217163
1712257408312002300,2.075002197265625,-0.10673141479492188,-0.005634307861328125,-0.0259186252951622
1712257408322008300,2.08500830078125,-0.03925323486328125,0.009339570999145508,0.04727952182292938
1712257408332014300,2.095014404296875,0.0222015380859375,0.05289649963378906,0.06668655574321747
1712257408342020400,2.105020263671875,0.08278751373291016,0.043543100357055664,0.10353073477745056
1712257408352026400,2.1150263671875,0.06263351440429688,0.024053335189819336,0.0921182930469513
1712257408362032400,2.125032470703125,0.000640869140625,0.0043065547943115234,-0.003731638193130493
1712257408372038400,2.135038330078125,-0.04599285125732422,-0.015684127807617188,-0.09321968257427216
1712257408382044400,2.14504443359375,-0.1389484405517578,-0.04474353790283203,-0.12420298159122467
1712257408392050700,2.15505078125,-0.22126293182373047,-0.0394740104675293,-0.12534798681735992
1712257408402056700,2.165056640625,-0.30271434783935547,-0.009280204772949219,-0.12647674977779388
1712257408412062700,2.175062744140625,-0.34103870391845703,0.012760639190673828,-0.08083344995975494
1712257408422068700,2.18506884765625,-0.20980548858642578,0.02196812629699707,0.02607281506061554
1712257408432074800,2.19507470703125,-0.024179458618164062,0.035524606704711914,0.07931514084339142
1712257408442080800,2.205080810546875,0.07882118225097656,0.033365726470947266,0.007235020399093628
1712257408452086800,2.215086669921875,0.1478900909423828,0.05274343490600586,0.014809101819992065
1712257408462092800,2.2250927734375,0.08467674255371094,0.06984090805053711,0.03508748114109039
1712257408472098800,2.235098876953125,-0.010043144226074219,0.0573277473449707,-0.021218344569206238
1712257408482104800,2.245104736328125,-0.06079387664794922,0.07328152656555176,-0.06281983852386475
1712257408492111000,2.255111083984375,-0.1154947280883789,0.08456087112426758,-0.0004006326198577881
1712257408502117000,2.2651171875,-0.09885501861572266,0.04433751106262207,0.09563426673412323
1712257408512123100,2.275123046875,0.044455528259277344,-0.009087085723876953,0.18931226432323456
1712257408522129000,2.28512890625,0.14786338806152344,-0.03400588035583496,0.14740782976150513
1712257408532135000,2.295135009765625,0.1556692123413086,-0.0029096603393554688,0.0411074161529541
1712257408542141000,2.305140869140625,0.1588897705078125,0.05523967742919922,-0.04520513117313385
1712257408552147000,2.31514697265625,0.16692066192626953,0.08850765228271484,-0.050986260175704956
1712257408562153000,2.325153076171875,0.16541671752929688,0.05060744285583496,-0.08561384677886963
1712257408572159000,2.335158935546875,0.13100814819335938,0.022676467895507812,-0.11499935388565063
1712257408582165000,2.3451650390625,0.07369422912597656,0.018475055694580078,-0.1143517792224884
1712257408592171000,2.3551708984375,-0.015715599060058594,0.014456510543823242,-0.12590089440345764
1712257408602177000,2.365177001953125,-0.052100181579589844,0.011100530624389648,-0.09297031164169312
1712257408612183000,2.37518310546875,-0.04098224639892578,-0.015257596969604492,-0.007883653044700623
1712257408622188800,2.385188720703125,-0.006455421447753906,-0.036588191986083984,0.07079881429672241
1712257408632194800,2.39519482421875,-0.014969825744628906,0.027568817138671875,0.028774484992027283
1712257408642200800,2.405200927734375,-0.0045795440673828125,0.043962955474853516,-0.0009914040565490723
1712257408652206800,2.415206787109375,0.00084686279296875,0.03222203254699707,0.03361332416534424
1712257408662212900,2.425212890625,-0.012701034545898438,0.011546611785888672,0.004550054669380188
1712257408672219000,2.435218994140625,-0.03563117980957031,0.03889203071594238,-0.07167018949985504
1712257408682225000,2.445224853515625,-0.044274330139160156,0.0428311824798584,-0.07550932466983795
1712257408692231000,2.45523095703125,-0.1001424789428711,0.009723186492919922,-0.0729885846376419
1712257408702237000,2.46523681640625,-0.1130685806274414,-0.017250776290893555,-0.030761241912841797
1712257408712243000,2.475242919921875,-0.1025857925415039,-0.024072885513305664,-0.006508320569992065
1712257408722248700,2.485248779296875,-0.0972585678100586,-0.0018537044525146484,0.02328595519065857
1712257408732254700,2.495254638671875,-0.012146949768066406,0.025084733963012695,0.0917181670665741
1712257408742260700,2.5052607421875,0.0670013427734375,0.04645538330078125,0.10180714726448059
1712257408752266800,2.515266845703125,0.08396434783935547,0.043137311935424805,0.062247246503829956
1712257408762272800,2.525272705078125,0.0633859634399414,0.024774551391601562,0.05387145280838013
1712257408772278800,2.53527880859375,0.062290191650390625,0.03418993949890137,0.039854586124420166
1712257408782284800,2.545284912109375,0.0662851333618164,0.04247331619262695,0.02538907527923584
1712257408792290800,2.555290771484375,0.0234222412109375,0.035712480545043945,-0.003545820713043213
1712257408802296800,2.565296875,-0.06573772430419922,0.03349161148071289,-0.02645215392112732
1712257408812302600,2.575302490234375,-0.09243488311767578,0.031824588775634766,-0.06120377779006958
1712257408822308600,2.58530859375,-0.0719308853149414,0.0026450157165527344,-0.0315852016210556
1712257408832314600,2.595314697265625,0.037543296813964844,0.011841773986816406,0.009472191333770752
1712257408842320600,2.605320556640625,0.13129806518554688,0.04366612434387207,0.046391695737838745
1712257408852326700,2.61532666015625,0.1439352035522461,0.04996895790100098,0.07398399710655212
1712257408862332700,2.625332763671875,0.1191549301147461,0.031252384185791016,0.12550726532936096
1712257408872338700,2.635338623046875,0.057539939880371094,0.006946086883544922,0.11513704061508179
1712257408882344700,2.6453447265625,-0.04526042938232422,0.03452563285827637,0.05137354135513306
1712257408892350700,2.655350830078125,-0.10873222351074219,0.052602529525756836,-0.013946309685707092
1712257408902356700,2.665356689453125,-0.12431526184082031,0.024156808853149414,-0.037575215101242065
1712257408912362800,2.67536279296875,-0.08345794677734375,0.01598048210144043,-0.05670705437660217
1712257408922368800,2.68536865234375,-0.005687713623046875,0.008227825164794922,-0.10938335955142975
1712257408932374800,2.695374755859375,0.028420448303222656,0.005326986312866211,-0.152326762676239
1712257408942380800,2.705380859375,-0.022817611694335938,0.030756235122680664,-0.17051789164543152
1712257408952386800,2.71538671875,-0.09231281280517578,0.04233574867248535,-0.09331023693084717
1712257408962392800,2.725392822265625,-0.13762760162353516,0.022118091583251953,-0.011347338557243347
1712257408972398800,2.73539892578125,-0.17348384857177734,0.02290034294128418,-0.008608922362327576
1712257408982405000,2.745405029296875,-0.14820003509521484,0.05365180969238281,-0.04639829695224762
1712257408992411100,2.7554111328125,-0.062488555908203125,0.07072591781616211,-0.08273908495903015
1712257409002417200,2.765417236328125,0.04531097412109375,0.07348990440368652,-0.08564575016498566
1712257409012423200,2.775423095703125,0.15177440643310547,0.06082415580749512,-0.06051509082317352
1712257409022429200,2.78542919921875,0.1206808090209961,0.003953218460083008,-0.00904335081577301
1712257409032435200,2.795435302734375,-0.03661155700683594,-0.048233985900878906,0.005790352821350098
1712257409042441200,2.805441162109375,-0.2292156219482422,-0.07042431831359863,0.00901438295841217
1712257409052447200,2.815447265625,-0.3111238479614258,-0.04753398895263672,0.05849333107471466
1712257409062453200,2.825453369140625,-0.21830177307128906,-0.03202366828918457,0.08335517346858978
1712257409072459300,2.835459228515625,-0.009655952453613281,0.003020763397216797,0.09404411911964417
1712257409082465500,2.845465576171875,0.14863109588623047,0.0415952205657959,0.05783459544181824
1712257409092471600,2.855471435546875,0.21068477630615234,0.054328203201293945,-0.0007610023021697998
1712257409102477600,2.8654775390625,0.2298412322998047,0.065399169921875,-0.05838710069656372
1712257409112483600,2.875483642578125,0.225494384765625,0.0847482681274414,-0.07350097596645355
1712257409122489600,2.885489501953125,0.23099803924560547,0.06984925270080566,-0.009005144238471985
1712257409132495600,2.89549560546875,0.2886810302734375,0.030184268951416016,0.08897365629673004
1712257409142501600,2.905501708984375,0.2801942825317383,0.012563467025756836,0.08369077742099762
1712257409152507600,2.915507568359375,0.1547842025756836,0.03575491905212402,0.05992621183395386
1712257409162513700,2.925513671875,0.012774467468261719,0.020508289337158203,0.09756927192211151
1712257409172519700,2.935519775390625,-0.009345054626464844,0.034242868423461914,0.21087592840194702
1712257409182526000,2.94552587890625,-0.04529380798339844,0.05261373519897461,0.23354607820510864
1712257409192532000,2.955531982421875,-0.0948934555053711,0.05680418014526367,0.1866430640220642
1712257409202538000,2.9655380859375,-0.11552047729492188,0.03755068778991699,0.0717381089925766
1712257409212544000,2.9755439453125,-0.15949058532714844,0.009589672088623047,-0.06904271245002747
1712257409222550000,2.985550048828125,-0.1464366912841797,-0.007875919342041016,-0.19337238371372223
1712257409232556000,2.99555615234375,-0.06293106079101562,0.007761716842651367,-0.14054527878761292
1712257409242562000,3.00556201171875,-0.0231781005859375,-0.0005784034729003906,0.06926442682743073
1712257409252568000,3.015568115234375,-0.0029649734497070312,-0.02762746810913086,0.17469914257526398
1712257409262574000,3.025573974609375,-0.030088424682617188,0.02560591697692871,0.0808408111333847
1712257409272580000,3.035580078125,-0.042453765869140625,0.08699393272399902,-0.05052608996629715
1712257409282586400,3.04558642578125,-0.10635566711425781,0.05791759490966797,-0.10201428830623627
1712257409292592400,3.05559228515625,-0.17409420013427734,-0.002930879592895508,-0.13201549649238586
1712257409302598400,3.065598388671875,-0.19402408599853516,-0.033228397369384766,-0.13640861213207245
1712257409312604400,3.0756044921875,-0.2142801284790039,-0.028103113174438477,-0.1437648981809616
1712257409322610400,3.0856103515625,-0.19723987579345703,-0.006886482238769531,-0.14360986649990082
1712257409332616400,3.095616455078125,-0.11033344268798828,0.0341801643371582,-0.12093599885702133
1712257409342622500,3.10562255859375,0.07874011993408203,0.04621529579162598,-0.08857809007167816
1712257409352628500,3.11562841796875,0.21344852447509766,0.04226827621459961,-0.10754044353961945
1712257409362634500,3.125634521484375,0.2667961120605469,0.035767555236816406,-0.1110285222530365
1712257409372640500,3.135640625,0.26850414276123047,0.04058361053466797,-0.028953976929187775
1712257409382646800,3.145646728515625,0.1674060821533203,0.05719327926635742,0.005018189549446106
1712257409392652800,3.15565283203125,-0.007088661193847656,0.06812477111816406,-0.003865256905555725
1712257409402658800,3.165658935546875,-0.14598751068115234,0.046684980392456055,-0.003394603729248047
1712257409412664800,3.175664794921875,-0.21724605560302734,0.008419036865234375,-0.01708287000656128
1712257409422670800,3.1856708984375,-0.24097824096679688,-0.00833749771118164,-0.006637260317802429
1712257409432676900,3.1956767578125,-0.2226104736328125,-0.02297377586364746,-0.029351703822612762
1712257409442683000,3.205682861328125,-0.17209339141845703,-0.021883726119995117,-0.036944739520549774
1712257409452689000,3.21568896484375,-0.09927654266357422,-0.015045642852783203,-0.024589218199253082
1712257409462695000,3.22569482421875,-0.009043693542480469,0.01109170913696289,-0.07406595349311829
1712257409472701000,3.235700927734375,0.07970428466796875,0.03209328651428223,-0.10993300378322601
1712257409482707200,3.245707275390625,0.10596942901611328,0.07581400871276855,-0.10991454124450684
1712257409492713200,3.255713134765625,0.08969974517822266,0.08047008514404297,-0.11711907386779785
1712257409502719200,3.26571923828125,0.03148937225341797,0.04700493812561035,-0.10724037885665894
1712257409512725200,3.275725341796875,-0.039933204650878906,0.023723840713500977,-0.04205649346113205
1712257409522731300,3.285731201171875,-0.044472694396972656,-0.007995843887329102,0.060794174671173096
1712257409532737300,3.2957373046875,0.11115074157714844,0.003086090087890625,0.1789495050907135
1712257409542743300,3.305743408203125,0.2883586883544922,0.021541118621826172,0.16568508744239807
1712257409552749300,3.315749267578125,0.3555135726928711,0.03158092498779297,0.05612562596797943
1712257409562755300,3.32575537109375,0.30976295471191406,0.05689597129821777,-0.008144617080688477
1712257409572761300,3.33576123046875,0.185638427734375,0.06995248794555664,-0.06281925737857819
1712257409582767600,3.345767578125,0.07360076904296875,0.034165143966674805,-0.09439462423324585
1712257409592773600,3.355773681640625,0.1237039566040039,0.03146028518676758,-0.035482339560985565
1712257409602779600,3.365779541015625,0.5976552963256836,0.04980826377868652,0.1241718977689743
1712257409612785700,3.37578564453125,1.0613622665405273,0.07563519477844238,-0.004644230008125305
1712257409622791700,3.385791748046875,1.4602012634277344,0.15156865119934082,-0.35370567440986633
1712257409632797400,3.39579736328125,1.942758560180664,0.282517671585083,-0.5211136341094971
1712257409642803500,3.405803466796875,2.4718332290649414,0.3880951404571533,-0.3908942937850952
1712257409652809500,3.4158095703125,3.2971115112304688,0.41215085983276367,-0.003647938370704651
1712257409662815500,3.4258154296875,3.8666343688964844,0.2662034034729004,0.1399768888950348
1712257409672821500,3.435821533203125,4.084266662597656,0.07525396347045898,0.14547735452651978
1712257409682827500,3.44582763671875,4.364079475402832,-0.0849466323852539,0.39120858907699585
1712257409692833500,3.45583349609375,4.765974998474121,-0.20007658004760742,0.3285864591598511
1712257409702839600,3.465839599609375,5.049686431884766,-0.4179520606994629,-0.259088397026062
1712257409712845600,3.475845458984375,5.129330635070801,-0.6950950622558594,-0.9846650958061218
1712257409722851600,3.4858515625,4.859915733337402,-1.145474910736084,-1.2780146598815918
1712257409732857300,3.495857421875,3.6417160034179688,-1.5720276832580566,-1.0654356479644775
1712257409742863400,3.50586328125,1.6728639602661133,-1.740023136138916,-0.9259101748466492
1712257409752869400,3.515869384765625,-0.32099342346191406,-1.648425579071045,-0.6416985988616943
1712257409762875400,3.52587548828125,-2.1033830642700195,-1.6742916107177734,-0.01393437385559082
1712257409772881400,3.53588134765625,-3.1188039779663086,-1.1940817832946777,0.34251099824905396
1712257409782887400,3.545887451171875,-3.1692142486572266,-0.9361677169799805,0.4967079758644104
1712257409792893400,3.5558935546875,-2.295182704925537,-0.9871392250061035,0.8276662826538086
1712257409802899500,3.5658994140625,-0.8821535110473633,-1.1287569999694824,0.801692008972168
1712257409812905500,3.575905517578125,-0.02887248992919922,-1.1421775817871094,0.4784731864929199
1712257409822911500,3.585911376953125,0.4626460075378418,-1.094146728515625,-0.18348273634910583
1712257409832917200,3.595917236328125,1.070094108581543,-0.9683218002319336,-0.8553375601768494
1712257409842923300,3.60592333984375,1.6668949127197266,-0.9083232879638672,-1.120073676109314
1712257409852929300,3.61592919921875,1.2091941833496094,-0.9898366928100586,-1.4027470350265503
1712257409862935300,3.625935302734375,-0.0783390998840332,-1.344296932220459,-0.9231820702552795
1712257409872941300,3.63594140625,-1.459707260131836,-1.629753589630127,0.04037880897521973
1712257409882947300,3.645947265625,-2.302955150604248,-1.9912590980529785,0.9857707619667053
1712257409892953300,3.655953369140625,-2.642160654067993,-1.1585092544555664,0.8516046404838562
1712257409902959400,3.66595947265625,-2.506319284439087,-0.4921140670776367,0.36911827325820923
1712257409912965400,3.67596533203125,-1.6484322547912598,-0.7402410507202148,0.6616766452789307
1712257409922971100,3.68597119140625,-1.138019323348999,-1.2531485557556152,0.7131705284118652
1712257409932977200,3.69597705078125,-1.4724605083465576,-1.4445700645446777,0.41706383228302
1712257409942983200,3.705983154296875,-1.9995954036712646,-1.38035249710083,0.22427448630332947
1712257409952989200,3.7159892578125,-2.0920252799987793,-1.217790126800537,0.22963660955429077
1712257409962995200,3.7259951171875,-1.9274375438690186,-1.1489801406860352,0.4678307771682739
1712257409973001200,3.736001220703125,-1.8686708211898804,-1.0839662551879883,0.7888698577880859
1712257409983007200,3.74600732421875,-1.7816914319992065,-0.9421110153198242,0.827325165271759
1712257409993013200,3.75601318359375,-1.7043765783309937,-0.8864250183105469,0.4766528010368347
1712257410003019300,3.766019287109375,-1.3736417293548584,-0.7881135940551758,0.17891919612884521
1712257410013025500,3.776025634765625,-1.0884044170379639,-0.6532373428344727,0.008202418684959412
1712257410023031600,3.786031494140625,-1.1673340797424316,-0.7165203094482422,0.054453179240226746
1712257410033037600,3.79603759765625,-1.3381634950637817,-0.7576732635498047,0.26163628697395325
1712257410043043600,3.806043701171875,-1.5110689401626587,-0.7144813537597656,0.19557395577430725
1712257410053049600,3.816049560546875,-1.7977583408355713,-0.7108850479125977,-0.002042628824710846
1712257410063055600,3.8260556640625,-1.9132884740829468,-0.6222038269042969,-0.05509044602513313
1712257410073061600,3.8360615234375,-1.8056447505950928,-0.5204763412475586,0.011818960309028625
1712257410083067600,3.846067626953125,-1.4651050567626953,-0.4300050735473633,0.14178919792175293
1712257410093073700,3.85607373046875,-0.8463826179504395,-0.23713111877441406,0.1209830641746521
1712257410103079700,3.86607958984375,-0.10810971260070801,-0.08200454711914062,-0.2721974849700928
1712257410113086000,3.8760859375,0.5634481906890869,0.04348945617675781,-0.480904757976532
1712257410123092000,3.886092041015625,0.7712361812591553,-0.009800910949707031,-0.5093185305595398
1712257410133098000,3.896097900390625,0.5879929065704346,0.002223968505859375,-0.19829708337783813
1712257410143104000,3.90610400390625,0.2550497055053711,0.0039691925048828125,0.02003457397222519
1712257410153110000,3.916110107421875,-0.20700311660766602,-0.017789840698242188,0.1574879288673401
1712257410163116000,3.926115966796875,-0.6777441501617432,-0.009307861328125,0.23504717648029327
1712257410173122000,3.9361220703125,-0.9401179552078247,-0.03681182861328125,0.2340860366821289
1712257410183128000,3.946128173828125,-0.7893798351287842,0.02873516082763672,0.030245259404182434
1712257410193134000,3.956134033203125,-0.32883715629577637,0.11467552185058594,-0.42339766025543213
1712257410203140000,3.96614013671875,0.36859846115112305,0.11945819854736328,-0.483309268951416
1712257410213146400,3.976146484375,0.7003273963928223,0.09929084777832031,-0.3685699999332428
1712257410223152400,3.98615234375,0.6835265159606934,-0.027507781982421875,-0.3460875153541565
1712257410233158400,3.996158447265625,0.5090525150299072,-0.11708450317382812,-0.1414763629436493
1712257410243164400,4.006164306640625,0.012373685836791992,-0.20701026916503906,-0.061398424208164215
1712257410253170400,4.01617041015625,-0.5707411766052246,-0.25795841217041016,0.0026195645332336426
1712257410263176400,4.026176513671875,-0.90485680103302,-0.19252395629882812,0.1366559863090515
1712257410273182500,4.036182373046875,-0.8823562860488892,-0.1347484588623047,0.14967304468154907
1712257410283188500,4.0461884765625,-0.5653517246246338,-0.09441375732421875,0.03278394043445587
1712257410293194500,4.056194580078125,-0.08922958374023438,-0.05345630645751953,-0.06478486955165863
1712257410303200500,4.066200439453125,0.23459649085998535,-0.032141685485839844,-0.16755390167236328
1712257410313206800,4.076206787109375,0.2837340831756592,-0.09290409088134766,-0.16590726375579834
1712257410323212800,4.086212890625,0.3352317810058594,-0.07779598236083984,0.11427274346351624
1712257410333218800,4.09621875,0.33153557777404785,-0.072998046875,0.3021394610404968
1712257410343224800,4.106224853515625,0.224625825881958,-0.12615489959716797,0.3263423442840576
1712257410353230800,4.11623095703125,-0.038964271545410156,-0.16509437561035156,0.1663064956665039
1712257410363236900,4.12623681640625,-0.3167235851287842,-0.16559123992919922,0.006993293762207031
1712257410373243000,4.136242919921875,-0.6343777179718018,-0.2083911895751953,-0.009093701839447021
1712257410383249000,4.146248779296875,-0.8216292858123779,-0.22129154205322266,0.02805149555206299
1712257410393255000,4.1562548828125,-0.6544468402862549,-0.17564678192138672,-0.06395357847213745
1712257410403261000,4.166260986328125,-0.5093750953674316,-0.20577049255371094,-0.08991135656833649
1712257410413267200,4.17626708984375,-0.4000563621520996,-0.24957942962646484,-0.09684412181377411
1712257410423273200,4.186273193359375,-0.33530616760253906,-0.29290199279785156,0.044600099325180054
1712257410433279200,4.196279296875,-0.2912571430206299,-0.31188488006591797,0.21175548434257507
1712257410443285200,4.20628515625,-0.37835144996643066,-0.3207359313964844,0.22790822386741638
1712257410453291300,4.216291259765625,-0.6788034439086914,-0.28080177307128906,0.08196026086807251
1712257410463297300,4.22629736328125,-0.993615984916687,-0.30612945556640625,-0.03157639503479004
1712257410473303300,4.23630322265625,-1.2621334791183472,-0.3435211181640625,-0.05113011598587036
1712257410483309300,4.246309326171875,-1.6398522853851318,-0.3968496322631836,-0.11172953248023987
1712257410493315300,4.2563154296875,-2.1297707557678223,-0.48879432678222656,-0.07547777891159058
1712257410503321300,4.2663212890625,-2.6299784183502197,-0.5701742172241211,-0.0000782310962677002
1712257410513327600,4.27632763671875,-2.9386985301971436,-0.6872997283935547,0.17847728729248047
1712257410523333600,4.286333740234375,-2.8237109184265137,-0.7197160720825195,0.3334578275680542
1712257410533339600,4.296339599609375,-2.4423940181732178,-0.638707160949707,0.3716648817062378
1712257410543345700,4.306345703125,-2.1795711517333984,-0.7645654678344727,0.4496218264102936
1712257410553351700,4.3163515625,-2.1911981105804443,-0.8528242111206055,0.7265547513961792
1712257410563357700,4.326357666015625,-2.1996350288391113,-0.9458217620849609,1.1552412509918213
1712257410573363700,4.33636376953125,-2.166698455810547,-1.1236538887023926,1.2735910415649414
1712257410583369700,4.34636962890625,-2.2172865867614746,-1.2507920265197754,1.3226056098937988
1712257410593375700,4.356375732421875,-2.3058221340179443,-1.3268632888793945,0.886667013168335
1712257410603381800,4.3663818359375,-2.4820172786712646,-1.4661283493041992,0.09986898303031921
1712257410613388000,4.376387939453125,-2.167356252670288,-1.609422206878662,-0.2231023758649826
1712257410623394000,4.38639404296875,-1.9395339488983154,-1.9039688110351562,0.08788445591926575
1712257410633400000,4.396400146484375,-1.6760785579681396,-2.115525245666504,0.7048249244689941
1712257410643406000,4.406406005859375,-1.6379284858703613,-2.2679476737976074,1.3266806602478027
1712257410653412000,4.416412109375,-2.073038101196289,-2.4837942123413086,1.66923987865448
1712257410663418000,4.426418212890625,-2.7344655990600586,-2.6631860733032227,1.737926721572876
1712257410673424100,4.436424072265625,-3.1513357162475586,-2.705439567565918,1.356289267539978
1712257410683430100,4.44643017578125,-3.132652997970581,-2.5641398429870605,0.42076990008354187
1712257410693436200,4.456436279296875,-2.4411988258361816,-2.1770377159118652,-1.0169203281402588
1712257410703442200,4.466442138671875,-0.8494501113891602,-1.6894402503967285,-2.3539302349090576
1712257410713448400,4.476448486328125,0.811729907989502,-1.3433351516723633,-3.0684752464294434
1712257410723454500,4.486454345703125,2.1744155883789062,-1.1087303161621094,-3.2309019565582275
1712257410733460500,4.49646044921875,3.07810115814209,-1.0014386177062988,-2.919045925140381
1712257410743466500,4.506466552734375,3.4536828994750977,-1.0040149688720703,-2.2211363315582275
1712257410753472500,4.516472412109375,3.5994462966918945,-0.9300343990325928,-1.1563301086425781
1712257410763478500,4.526478515625,3.6376113891601562,-0.7472214698791504,0.4395864009857178
1712257410773484500,4.536484619140625,3.432361602783203,-1.0179448127746582,2.2378578186035156
1712257410783490600,4.546490478515625,3.7583141326904297,-0.2786264419555664,2.173577308654785
1712257410793496600,4.55649658203125,4.298056602478027,0.351670503616333,1.3405808210372925
1712257410803502600,4.566502685546875,4.684874534606934,0.6922860145568848,0.05661681294441223
1712257410813508900,4.5765087890625,4.698744773864746,1.0065879821777344,-1.1131417751312256
1712257410823514600,4.5865146484375,4.563033103942871,1.0071518421173096,-1.6180044412612915
1712257410833520600,4.596520751953125,3.883207321166992,0.6896545886993408,-1.5540977716445923
1712257410843526700,4.606526611328125,2.876310348510742,0.4457874298095703,-1.3297712802886963
1712257410853532700,4.61653271484375,1.8974123001098633,0.2184889316558838,-0.8027647733688354
1712257410863538700,4.62653857421875,1.1967134475708008,-0.013602972030639648,-0.13832753896713257
1712257410873544700,4.636544677734375,0.6997499465942383,-0.22595834732055664,0.5127701759338379
1712257410883550700,4.64655078125,0.5380334854125977,-0.2897152900695801,1.10179603099823
1712257410893556700,4.656556640625,0.5666379928588867,-0.21188044548034668,1.3050910234451294
1712257410903562800,4.666562744140625,0.5844888687133789,-0.05891561508178711,0.9503731727600098
1712257410913568800,4.67656884765625,0.6733989715576172,0.12454915046691895,0.3372144103050232
1712257410923574500,4.686574462890625,0.8630771636962891,0.2534623146057129,-0.13845942914485931
1712257410933580500,4.69658056640625,0.9727725982666016,0.29622960090637207,-0.4462948441505432
1712257410943586600,4.706586669921875,0.8931465148925781,0.25657057762145996,-0.5143344402313232
1712257410953592600,4.716592529296875,0.4996671676635742,0.1798558235168457,-0.4111076295375824
1712257410963598600,4.7265986328125,0.38460731506347656,0.17336583137512207,-0.16154597699642181
1712257410973604600,4.7366044921875,0.2465839385986328,0.04492640495300293,0.08264455199241638
1712257410983610600,4.746610595703125,0.1044607162475586,-0.04659438133239746,0.34109413623809814
1712257410993616600,4.75661669921875,0.08704090118408203,-0.06243562698364258,0.6038721799850464
1712257411003622700,4.76662255859375,0.03167152404785156,-0.07914209365844727,0.7065228223800659
1712257411013628700,4.776628662109375,-0.08543109893798828,-0.0868062973022461,0.6122972369194031
1712257411023634400,4.786634521484375,-0.25474071502685547,-0.07979822158813477,0.4615646302700043
1712257411033640400,4.796640380859375,-0.390411376953125,-0.033411502838134766,0.2970711588859558
1712257411043646500,4.806646484375,-0.44504737854003906,0.010208606719970703,0.13331538438796997
1712257411053652500,4.816652587890625,-0.48592472076416016,0.03259468078613281,-0.014598354697227478
1712257411063658500,4.826658447265625,-0.5849075317382812,0.05820155143737793,-0.1257619559764862
1712257411073664500,4.83666455078125,-0.9817342758178711,0.10012340545654297,-0.23127226531505585
1712257411083670500,4.84667041015625,-0.916874885559082,0.23716521263122559,-0.21531929075717926
1712257411093676500,4.856676513671875,-0.7395458221435547,0.18544411659240723,-0.17869184911251068
1712257411103682600,4.8666826171875,-0.4586973190307617,0.13364315032958984,-0.06420354545116425
1712257411113688300,4.876688232421875,-0.05453205108642578,0.11203575134277344,0.02170822024345398
1712257411123694300,4.8866943359375,0.3398447036743164,0.08853721618652344,0.001180887222290039
1712257411133700400,4.896700439453125,0.6586971282958984,0.025660037994384766,-0.047993987798690796
1712257411143706400,4.906706298828125,0.7548055648803711,0.05905938148498535,-0.11027274280786514
1712257411153712400,4.91671240234375,0.6093292236328125,0.13158798217773438,-0.20489229261875153
1712257411163718400,4.926718505859375,0.3654041290283203,0.15029144287109375,-0.24955007433891296
1712257411173724400,4.936724365234375,0.12751293182373047,0.14235711097717285,-0.2246956080198288
1712257411183730700,4.946730712890625,-0.11927032470703125,0.1196451187133789,-0.14444071054458618
1712257411193736700,4.95673681640625,-0.2895059585571289,0.10353779792785645,-0.023220553994178772
1712257411203742700,4.96674267578125,-0.39331531524658203,0.10540771484375,0.08780065178871155
1712257411213748700,4.976748779296875,-0.4165525436401367,0.08242440223693848,0.18811681866645813
1712257411223754800,4.986754638671875,-0.27315235137939453,0.04306435585021973,0.33556193113327026
1712257411233760800,4.9967607421875,-0.034552574157714844,-0.010446786880493164,0.5261294841766357
1712257411243766800,5.006766845703125,0.15157413482666016,-0.07112503051757812,0.5824170708656311
1712257411253772800,5.016772705078125,0.2379140853881836,-0.06386542320251465,0.3938576579093933
1712257411263778800,5.02677880859375,0.3633079528808594,0.01079559326171875,0.18018187582492828
1712257411273784800,5.036784912109375,0.5757064819335938,0.10360980033874512,0.05648757517337799
1712257411283791000,5.046791015625,0.6842527389526367,0.16025829315185547,-0.04081478714942932
1712257411293797000,5.056797119140625,0.6032543182373047,0.1951742172241211,-0.13697652518749237
1712257411303803100,5.06680322265625,0.41872310638427734,0.24828338623046875,-0.16176073253154755
1712257411313809200,5.07680908203125,0.3215007781982422,0.230424165725708,-0.033621013164520264
1712257411323815200,5.086815185546875,0.3113565444946289,0.11794519424438477,0.13351909816265106
1712257411333821200,5.0968212890625,0.23061656951904297,0.04460000991821289,0.18264538049697876
1712257411343827200,5.1068271484375,-0.0164031982421875,0.06449484825134277,0.040102750062942505
1712257411353833200,5.116833251953125,-0.2629051208496094,0.11384463310241699,-0.13679538667201996
1712257411363839200,5.126839111328125,-0.42842674255371094,0.11436676979064941,-0.19200797379016876
1712257411373845200,5.13684521484375,-0.4703826904296875,0.08121514320373535,-0.12154699862003326
1712257411383851500,5.1468515625,-0.4353466033935547,0.03298330307006836,-0.025754094123840332
1712257411393857500,5.156857421875,-0.434722900390625,0.026971817016601562,-0.019998446106910706
1712257411403863600,5.166863525390625,-0.41149139404296875,0.06718254089355469,-0.07195039838552475
1712257411413869600,5.17686962890625,-0.2811002731323242,0.07198619842529297,0.018525153398513794
1712257411423875600,5.18687548828125,-0.16246795654296875,0.04914546012878418,0.11221465468406677
1712257411433881600,5.196881591796875,-0.10202217102050781,-0.0026977062225341797,0.13901662826538086
1712257411443887600,5.2068876953125,-0.07513999938964844,-0.008221149444580078,0.08203764259815216
1712257411453893600,5.2168935546875,-0.03431224822998047,0.05574846267700195,0.019190773367881775
1712257411463899600,5.226899658203125,0.09116649627685547,0.0833590030670166,0.006246507167816162
1712257411473905700,5.23690576171875,0.1588916778564453,0.08842945098876953,-0.024169981479644775
1712257411483912000,5.246911865234375,0.1747140884399414,0.10830402374267578,-0.07569620013237
1712257411493918000,5.25691796875,0.09231853485107422,0.14324617385864258,-0.1346067637205124
1712257411503924000,5.266924072265625,-0.09188365936279297,0.1574552059173584,-0.17378108203411102
1712257411513930000,5.276929931640625,-0.32025146484375,0.11583566665649414,-0.12926456332206726
1712257411523936000,5.28693603515625,-0.4561042785644531,0.07802963256835938,-0.031199857592582703
1712257411533942000,5.29694189453125,-0.4448127746582031,0.054490089416503906,0.04914185404777527
1712257411543948000,5.306947998046875,-0.3312063217163086,0.054193973541259766,0.12767139077186584
1712257411553954000,5.3169541015625,-0.16368770599365234,0.042186737060546875,0.19208753108978271
1712257411563960000,5.3269599609375,-0.02728271484375,0.035189151763916016,0.1913100779056549
1712257411573966000,5.336966064453125,0.01764392852783203,0.022502660751342773,0.14545759558677673
1712257411583972400,5.346972412109375,-0.0037832260131835938,0.022960424423217773,0.04022893309593201
1712257411593978400,5.356978271484375,-0.10485649108886719,0.03734755516052246,-0.10019972920417786
1712257411603984400,5.366984375,-0.19034957885742188,0.05230259895324707,-0.09197790920734406
1712257411613990400,5.376990478515625,-0.22772216796875,0.05897164344787598,0.005671411752700806
1712257411623996400,5.386996337890625,-0.22257423400878906,0.0672762393951416,0.10111436247825623
1712257411634002400,5.39700244140625,-0.19913673400878906,0.06294727325439453,0.039349108934402466
1712257411644008400,5.407008544921875,-0.1577005386352539,0.08859872817993164,-0.14492622017860413
1712257411654014500,5.417014404296875,-0.16437625885009766,0.14347553253173828,-0.3051567077636719
1712257411664020500,5.4270205078125,-0.1573171615600586,0.16660118103027344,-0.3443422317504883
1712257411674026500,5.437026611328125,-0.08957958221435547,0.1487865447998047,-0.2973611056804657
1712257411684032800,5.44703271484375,-0.004176139831542969,0.07519340515136719,-0.23025047779083252
1712257411694038800,5.457038818359375,0.056583404541015625,0.01589035987854004,-0.10780347883701324
1712257411704044800,5.467044921875,0.008412361145019531,0.0078051090240478516,0.015423357486724854
1712257411714050800,5.47705078125,-0.03407764434814453,0.03173542022705078,0.10375380516052246
1712257411724056800,5.487056884765625,0.009076118469238281,0.06349372863769531,0.15808355808258057
1712257411734062800,5.497062744140625,0.03780555725097656,0.0504603385925293,0.12118369340896606
1712257411744068900,5.50706884765625,0.014649391174316406,0.03596758842468262,0.06452104449272156
1712257411754075000,5.517074951171875,-0.054945945739746094,0.05831170082092285,0.02945166826248169
1712257411764081000,5.527080810546875,-0.1941671371459961,0.10444760322570801,-0.09021946787834167
1712257411774087000,5.5370869140625,-0.3036079406738281,0.13860821723937988,-0.1718982756137848
1712257411784093200,5.54709326171875,-0.28969669342041016,0.10967636108398438,-0.0716947615146637
1712257411794099200,5.55709912109375,-0.24370384216308594,0.05553913116455078,0.0656883716583252
1712257411804105200,5.567105224609375,-0.175384521484375,0.03229784965515137,0.15174955129623413
1712257411814111200,5.577111328125,-0.08012962341308594,0.01952338218688965,0.16066256165504456
1712257411824117200,5.5871171875,-0.0005159378051757812,0.011463403701782227,0.13625526428222656
1712257411834123300,5.597123291015625,0.040363311767578125,0.012072086334228516,0.06518098711967468
1712257411844129300,5.60712939453125,0.05733203887939453,0.03504514694213867,0.05739310383796692
1712257411854135300,5.61713525390625,0.0743408203125,0.05164670944213867,0.07017037272453308
1712257411864141300,5.627141357421875,0.07723712921142578,0.05737638473510742,0.10294368863105774
1712257411874147300,5.637147216796875,0.12274551391601562,0.06181621551513672,0.12776806950569153
1712257411884153600,5.647153564453125,0.18675518035888672,0.07861995697021484,0.0788278579711914
1712257411894159600,5.65715966796875,0.18905258178710938,0.07433652877807617,0.0026077330112457275
1712257411904165600,5.66716552734375,0.0692434310913086,0.09260272979736328,-0.05498644709587097
1712257411914171600,5.677171630859375,-0.0014896392822265625,0.09656643867492676,-0.060711249709129333
1712257411924177700,5.687177734375,-0.0005521774291992188,0.07752227783203125,-0.039241865277290344
1712257411934183700,5.69718359375,-0.01849079132080078,0.04025864601135254,-0.015410453081130981
1712257411944189700,5.707189697265625,-0.05504894256591797,0.027650833129882812,0.015411466360092163
1712257411954195700,5.71719580078125,-0.039328575134277344,0.01103973388671875,0.04044342041015625
1712257411964201700,5.72720166015625,0.0042247772216796875,0.03748750686645508,0.019303947687149048
1712257411974208000,5.7372080078125,0.089263916015625,0.07793068885803223,0.038749754428863525
1712257411984214000,5.747214111328125,0.13063621520996094,0.06539011001586914,0.030388742685317993
1712257411994220000,5.757219970703125,0.12467479705810547,0.02800726890563965,-0.015526890754699707
1712257412004226000,5.76722607421875,0.05817985534667969,0.012779951095581055,-0.031995490193367004
1712257412014232000,5.777232177734375,-0.09173297882080078,0.020534753799438477,-0.04768902063369751
1712257412024238000,5.787238037109375,-0.2912473678588867,0.08104538917541504,-0.11057674884796143
1712257412034244000,5.797244140625,-0.4083261489868164,0.13441014289855957,-0.13096356391906738
1712257412044250000,5.80725,-0.34074974060058594,0.10550856590270996,-0.08743084967136383
1712257412054256000,5.817256103515625,-0.19929981231689453,-0.006177425384521484,-0.019968494772911072
1712257412064262100,5.82726220703125,-0.07418537139892578,-0.045667171478271484,0.07732078433036804
1712257412074268200,5.83726806640625,-0.016618728637695312,-0.039014339447021484,0.1595344841480255
1712257412084274200,5.847274169921875,-0.03959178924560547,-0.029567241668701172,0.1485901176929474
1712257412094280200,5.8572802734375,-0.10894298553466797,-0.01236414909362793,0.09929114580154419
1712257412104286200,5.8672861328125,-0.3046722412109375,0.06674861907958984,-0.0726950615644455
1712257412114292200,5.877292236328125,-0.4560060501098633,0.1580514907836914,-0.26409780979156494
1712257412124298200,5.88729833984375,-0.4087095260620117,0.18288564682006836,-0.24109193682670593
1712257412134304000,5.897303955078125,-0.18919086456298828,0.12681174278259277,-0.11621268093585968
1712257412144310000,5.90731005859375,0.05920219421386719,0.06392788887023926,-0.037382274866104126
1712257412154316000,5.91731591796875,0.26613426208496094,0.048182010650634766,0.015355288982391357
1712257412164322000,5.927322021484375,0.4752960205078125,0.07651782035827637,0.10480278730392456
1712257412174328000,5.937328125,0.6400957107543945,0.07566452026367188,0.1788518726825714
1712257412184334000,5.947333984375,0.6296443939208984,0.0313868522644043,0.03819483518600464
1712257412194340000,5.957340087890625,0.45600032806396484,0.006742715835571289,-0.08449487388134003
1712257412204346000,5.96734619140625,0.22493457794189453,0.01742076873779297,-0.04351244866847992
1712257412214352100,5.97735205078125,0.007411956787109375,0.03194546699523926,0.008806586265563965
1712257412224358100,5.987358154296875,-0.1313648223876953,0.02348160743713379,0.027422457933425903
1712257412234364000,5.997364013671875,-0.1598501205444336,0.011350154876708984,0.04330724477767944
1712257412244370000,6.007369873046875,-0.1270151138305664,0.005015134811401367,0.07193830609321594
1712257412254376000,6.0173759765625,-0.07603740692138672,-0.010555267333984375,0.12283280491828918
1712257412264382000,6.0273818359375,-0.021099090576171875,-0.012362957000732422,0.1284371018409729
1712257412274388000,6.037387939453125,-0.009298324584960938,0.0038824081420898438,0.11786800622940063
1712257412284394000,6.04739404296875,0.021200180053710938,0.028867006301879883,0.06729733943939209
1712257412294400000,6.05739990234375,0.1033468246459961,0.04743385314941406,0.009301602840423584
1712257412304406000,6.067406005859375,0.2226276397705078,0.05821824073791504,-0.014359861612319946
1712257412314412000,6.077412109375,0.2421121597290039,0.05134224891662598,-0.02473895251750946
1712257412324418000,6.08741796875,0.16804981231689453,0.0605626106262207,-0.03203184902667999
1712257412334423800,6.097423828125,0.03455924987792969,0.06337642669677734,-0.040390580892562866
1712257412344429800,6.107429931640625,-0.0968179702758789,0.08091425895690918,-0.04525507986545563
1712257412354435800,6.117435791015625,-0.20764636993408203,0.06702136993408203,-0.051640719175338745
1712257412364441900,6.12744189453125,-0.3031587600708008,0.041632890701293945,-0.04570724070072174
1712257412374447900,6.13744775390625,-0.37914466857910156,-0.0132293701171875,-0.02698308229446411
1712257412384454000,6.147453857421875,-0.4031839370727539,-0.025868654251098633,0.009749174118041992
1712257412394460000,6.1574599609375,-0.3291034698486328,-0.025155067443847656,0.03149271011352539
1712257412404466000,6.1674658203125,-0.15813159942626953,0.02496814727783203,0.015874505043029785
1712257412414472000,6.177471923828125,-0.013713836669921875,0.06060481071472168,-0.06959863007068634
1712257412424478000,6.18747802734375,0.029546737670898438,0.09996485710144043,-0.1585838496685028
1712257412434484000,6.19748388671875,0.015852928161621094,0.09081149101257324,-0.1622079312801361
1712257412444490200,6.207490234375,-0.016214370727539062,0.06700897216796875,-0.1146259605884552
1712257412454496300,6.217496337890625,-0.09472370147705078,0.019765377044677734,-0.040077850222587585
1712257412464502300,6.227502197265625,-0.1720428466796875,-0.016897201538085938,0.009707897901535034
1712257412474508300,6.23750830078125,-0.23891162872314453,-0.023821353912353516,-0.008015304803848267
1712257412484514300,6.247514404296875,-0.27695655822753906,-0.0005962848663330078,0.0018979310989379883
1712257412494520300,6.257520263671875,-0.2868766784667969,0.015192270278930664,0.03539162874221802
1712257412504526300,6.2675263671875,-0.2316265106201172,0.01934194564819336,0.10266444087028503
1712257412514532400,6.277532470703125,-0.12144756317138672,0.025365829467773438,0.12293243408203125
1712257412524538400,6.287538330078125,0.0007257461547851562,0.02273249626159668,0.040211021900177
1712257412534544400,6.29754443359375,0.1350555419921875,0.07173681259155273,-0.11169910430908203
1712257412544550700,6.307550537109375,0.2534151077270508,0.1234745979309082,-0.14884847402572632
1712257412554556700,6.317556640625,0.38474464416503906,0.11060857772827148,-0.10107050836086273
1712257412564562700,6.327562744140625,0.43047046661376953,0.06078171730041504,-0.049635469913482666
1712257412574568700,6.337568603515625,0.3401603698730469,0.031200647354125977,-0.016805320978164673
1712257412584574700,6.34757470703125,0.138946533203125,0.0377194881439209,-0.02963419258594513
1712257412594580700,6.357580810546875,-0.04484367370605469,0.03461909294128418,-0.006200224161148071
1712257412604586800,6.367586669921875,-0.11289024353027344,-0.005208015441894531,0.018581926822662354
1712257412614592800,6.3775927734375,-0.1047506332397461,-0.043486833572387695,0.06691578030586243
1712257412624598800,6.387598876953125,-0.1583414077758789,-0.05161166191101074,0.09029972553253174
1712257412634604800,6.397604736328125,-0.10322761535644531,0.003268003463745117,0.027151495218276978
1712257412644611000,6.407611083984375,-0.05881977081298828,0.0444796085357666,-0.05166381597518921
1712257412654617000,6.4176171875,-0.0390167236328125,0.09099912643432617,-0.05716830492019653
1712257412664623000,6.427623046875,-0.048053741455078125,0.11428236961364746,-0.07053489983081818
1712257412674629000,6.437629150390625,-0.07616043090820312,0.09618806838989258,-0.12334197759628296
1712257412684635100,6.44763525390625,-0.09473609924316406,0.07018113136291504,-0.12912309169769287
1712257412694641200,6.45764111328125,-0.12270545959472656,0.05484652519226074,-0.06788806617259979
1712257412704647200,6.467647216796875,-0.056008338928222656,0.006521463394165039,0.06993085145950317
1712257412714653200,6.477653076171875,-0.01824188232421875,-0.05671572685241699,0.19871482253074646
1712257412724659200,6.4876591796875,-0.08424568176269531,-0.06882858276367188,0.17809465527534485
1712257412734665200,6.497665283203125,-0.08775520324707031,-0.011043310165405273,0.11457693576812744
1712257412744671500,6.50767138671875,-0.07244205474853516,0.07419824600219727,0.0009312033653259277
1712257412754677500,6.517677490234375,-0.08099651336669922,0.09730243682861328,-0.1278284341096878
1712257412764683500,6.52768359375,-0.07533740997314453,0.0640416145324707,-0.16415369510650635
1712257412774689500,6.537689453125,-0.03225517272949219,0.0036957263946533203,-0.06956136226654053
1712257412784695600,6.547695556640625,0.05257606506347656,-0.027695894241333008,0.037870854139328
1712257412794701600,6.55770166015625,0.042006492614746094,-0.007477760314941406,0.027196168899536133
1712257412804707600,6.56770751953125,-0.048645973205566406,0.06948208808898926,-0.010511040687561035
1712257412814713600,6.577713623046875,-0.06763458251953125,0.09482789039611816,-0.028433695435523987
1712257412824719600,6.5877197265625,-0.006550788879394531,0.06893658638000488,-0.037395820021629333
1712257412834725600,6.5977255859375,0.04868316650390625,0.025041818618774414,0.02906578779220581
1712257412844732000,6.60773193359375,0.11721229553222656,0.014440774917602539,0.086342453956604
1712257412854738000,6.617738037109375,0.17086315155029297,0.04973030090332031,0.06896761059761047
1712257412864744000,6.627743896484375,0.14877986907958984,0.08287262916564941,0.018865376710891724
1712257412874750000,6.63775,0.08966064453125,0.053578853607177734,-0.01813580095767975
1712257412884756000,6.647755859375,0.06937980651855469,-0.022689342498779297,-0.052066072821617126
1712257412894762000,6.657761962890625,0.030755996704101562,-0.050887346267700195,-0.02638043463230133
1712257412904768000,6.66776806640625,-0.05423450469970703,-0.02691936492919922,0.011525899171829224
1712257412914774000,6.67777392578125,-0.10500144958496094,0.011264562606811523,0.04412361979484558
1712257412924780000,6.687780029296875,-0.08924484252929688,0.0634152889251709,0.07457923889160156
1712257412934786000,6.6977861328125,-0.11185169219970703,0.11105585098266602,0.013464123010635376
1712257412944792300,6.707792236328125,-0.09208393096923828,0.09766888618469238,-0.053724080324172974
1712257412954798300,6.71779833984375,-0.02091693878173828,0.06577491760253906,-0.09032435715198517
1712257412964804400,6.727804443359375,0.035167694091796875,0.0524749755859375,-0.0785970538854599
1712257412974810400,6.737810302734375,0.10017871856689453,0.03332161903381348,-0.07670481503009796
1712257412984816400,6.74781640625,0.1271371841430664,0.026554346084594727,-0.06709448993206024
1712257412994822400,6.757822509765625,0.02718639373779297,0.013224363327026367,-0.035805776715278625
1712257413004828400,6.767828369140625,-0.09434795379638672,-0.014799356460571289,0.012251675128936768
1712257413014834400,6.77783447265625,-0.19513511657714844,-0.041875600814819336,0.08163267374038696
1712257413024840400,6.78784033203125,-0.2617654800415039,-0.052825927734375,0.0930776596069336
1712257413034846500,6.797846435546875,-0.2479076385498047,-0.019175291061401367,0.029670387506484985
1712257413044852700,6.807852783203125,-0.15027523040771484,0.03029799461364746,-0.045693352818489075
1712257413054858800,6.817858642578125,-0.03133106231689453,0.07612395286560059,-0.05841568112373352
1712257413064864800,6.82786474609375,0.09487628936767578,0.0557706356048584,-0.03282427787780762
1712257413074870800,6.837870849609375,0.2003936767578125,0.03487110137939453,0.026609808206558228
1712257413084876800,6.847876708984375,0.21986961364746094,0.026863813400268555,0.025048822164535522
1712257413094882800,6.8578828125,0.14510250091552734,0.06530022621154785,-0.08500570058822632
1712257413104888800,6.867888916015625,0.1044912338256836,0.12215638160705566,-0.11862406879663467
1712257413114894800,6.877894775390625,0.06920719146728516,0.11717104911804199,-0.040334030985832214
1712257413124900900,6.88790087890625,0.06757640838623047,0.07912445068359375,0.048947423696517944
1712257413134907000,6.897906982421875,0.04279041290283203,0.01708364486694336,0.12195676565170288
1712257413144913200,6.9079130859375,-0.0001430511474609375,-0.035404205322265625,0.17536619305610657
1712257413154919200,6.917919189453125,-0.04687690734863281,-0.03582644462585449,0.1477982997894287
1712257413164925200,6.92792529296875,-0.0834197998046875,0.006125688552856445,0.09746873378753662
1712257413174931200,6.93793115234375,-0.08645057678222656,0.005192995071411133,0.0007576048374176025
1712257413184937200,6.947937255859375,-0.07535076141357422,-0.00494694709777832,-0.057232052087783813
1712257413194943200,6.957943115234375,-0.05034351348876953,0.01813817024230957,-0.06233072280883789
1712257413204949200,6.96794921875,-0.058707237243652344,0.04073190689086914,-0.061656296253204346
1712257413214955300,6.977955322265625,-0.04821968078613281,0.058530569076538086,-0.06926529109477997
1712257413224961300,6.987961181640625,-0.03332042694091797,0.05749368667602539,-0.08508233726024628
1712257413234967300,6.99796728515625,-0.0046672821044921875,0.03794050216674805,-0.052431732416152954
1712257413244973600,7.0079736328125,0.05173778533935547,0.014007329940795898,0.008780494332313538
1712257413254979600,7.0179794921875,0.0838022232055664,-0.014631271362304688,0.0354536771774292
1712257413264985600,7.027985595703125,0.049498558044433594,0.008800268173217773,0.013675227761268616
1712257413274991600,7.03799169921875,0.0393218994140625,0.055387020111083984,-0.02709774672985077
1712257413284997600,7.04799755859375,0.052924156188964844,0.054015398025512695,-0.0026798099279403687
1712257413295003600,7.058003662109375,0.019301414489746094,0.03844499588012695,-0.023341268301010132
1712257413305009700,7.068009765625,-0.004309654235839844,0.03726983070373535,-0.05448034405708313
1712257413315015700,7.078015625,0.014885902404785156,0.04545283317565918,-0.04317037761211395
1712257413325021700,7.088021728515625,0.052765846252441406,0.024669885635375977,0.015667691826820374
1712257413335027700,7.09802783203125,0.038407325744628906,-0.00587010383605957,0.0794815719127655
1712257413345033700,7.10803369140625,0.0055675506591796875,-0.0034477710723876953,0.06404708325862885
1712257413355039500,7.11803955078125,-0.05978107452392578,0.013251543045043945,-0.0015825778245925903
1712257413365045500,7.12804541015625,-0.1103067398071289,0.0402679443359375,-0.05607965588569641
1712257413375051500,7.138051513671875,-0.08982563018798828,0.05889320373535156,-0.07229527831077576
1712257413385057500,7.1480576171875,-0.041693687438964844,0.07809805870056152,-0.08448050916194916
1712257413395063600,7.1580634765625,0.010233879089355469,0.06913447380065918,-0.06892706453800201
1712257413405069600,7.168069580078125,0.037978172302246094,0.05021953582763672,0.0026107430458068848
1712257413415075600,7.17807568359375,0.03267669677734375,0.006894111633300781,0.049444735050201416
1712257413425081600,7.18808154296875,-0.014504432678222656,-0.018166303634643555,0.029734909534454346
1712257413435087600,7.198087646484375,-0.10322284698486328,0.008788824081420898,-0.03633895516395569
1712257413445093400,7.20809326171875,-0.1719989776611328,0.04589247703552246,-0.026269257068634033
1712257413455099400,7.218099365234375,-0.19774913787841797,0.01812434196472168,0.0010549277067184448
1712257413465105400,7.22810546875,-0.1764516830444336,-0.007618427276611328,0.031382352113723755
1712257413475111400,7.238111328125,-0.12286567687988281,0.0009996891021728516,0.028566911816596985
1712257413485117400,7.248117431640625,-0.05627155303955078,0.010060787200927734,0.01317809522151947
1712257413495123500,7.25812353515625,0.018503189086914062,0.033391475677490234,-0.010094210505485535
1712257413505129500,7.26812939453125,0.09692001342773438,0.04161643981933594,-0.023137167096138
1712257413515135500,7.278135498046875,0.14155101776123047,0.02939891815185547,-0.026970133185386658
1712257413525141500,7.2881416015625,0.10115432739257812,0.020621538162231445,-0.007325813174247742
1712257413535147500,7.2981474609375,0.057059288024902344,0.02974557876586914,-0.025413766503334045
1712257413545153300,7.3081533203125,0.037291526794433594,0.03381991386413574,-0.00513322651386261
1712257413555159300,7.3181591796875,0.0649251937866211,0.0332186222076416,0.03763234615325928
1712257413565165300,7.328165283203125,0.06882667541503906,0.022425413131713867,0.036489322781562805
1712257413575171300,7.33817138671875,0.044647216796875,0.006318807601928711,0.05946744978427887
1712257413585177300,7.34817724609375,0.016263961791992188,0.004204988479614258,0.07833363115787506
1712257413595183400,7.358183349609375,0.00716400146484375,0.035086870193481445,0.03194908797740936
1712257413605189400,7.368189453125,-0.03972339630126953,0.0850832462310791,-0.10714118182659149
1712257413615195400,7.3781953125,-0.057918548583984375,0.10258769989013672,-0.1385549157857895
1712257413625201400,7.388201416015625,-0.07137584686279297,0.04084348678588867,-0.1110825315117836
1712257413635207400,7.39820751953125,-0.061237335205078125,-0.00516510009765625,-0.028127655386924744
1712257413645213400,7.40821337890625,-0.041927337646484375,-0.017267227172851562,0.026003211736679077
1712257413655219500,7.418219482421875,-0.013475418090820312,-0.010542869567871094,0.032991304993629456
1712257413665225500,7.4282255859375,-0.01843547821044922,0.019413232803344727,0.01321662962436676
1712257413675231500,7.4382314453125,-0.06118965148925781,0.054173946380615234,-0.0431729257106781
1712257413685237500,7.448237548828125,-0.08472537994384766,0.07532477378845215,-0.05699196457862854
1712257413695243500,7.458243408203125,-0.07514762878417969,0.06405043601989746,0.012568950653076172
1712257413705249500,7.46824951171875,-0.046891212463378906,0.0012497901916503906,0.0799102783203125
1712257413715255600,7.478255615234375,-0.009556770324707031,-0.060817718505859375,0.08856520056724548
1712257413725261600,7.488261474609375,0.0037374496459960938,-0.03739428520202637,0.06787070631980896
1712257413735267800,7.498267822265625,0.02163219451904297,0.018320322036743164,0.032715827226638794
1712257413745273900,7.50827392578125,0.04880523681640625,0.04437708854675293,0.016825050115585327
1712257413755280000,7.51827978515625,0.0710287094116211,0.0409696102142334,0.002483069896697998
1712257413765286000,7.528285888671875,0.08850479125976562,0.05987095832824707,0.019216150045394897
1712257413775292000,7.5382919921875,0.07771873474121094,0.0631263256072998,-0.012823998928070068
1712257413785298000,7.5482978515625,0.015492439270019531,0.07975530624389648,-0.14164015650749207
1712257413795304000,7.558303955078125,-0.01736164093017578,0.07709360122680664,-0.2503505349159241
1712257413805310000,7.56831005859375,0.006897926330566406,0.03212761878967285,-0.2420114129781723
1712257413815316000,7.57831591796875,0.02631855010986328,-0.007951498031616211,-0.14761817455291748
1712257413825322000,7.588322021484375,-0.02495861053466797,0.027399063110351562,-0.057218536734580994
1712257413835328300,7.598328369140625,-0.13177204132080078,0.03360915184020996,0.07833099365234375
1712257413845334300,7.608334228515625,-0.1991748809814453,-0.007308244705200195,0.19829681515693665
1712257413855340300,7.61834033203125,-0.24689388275146484,-0.05141496658325195,0.1849251389503479
1712257413865346300,7.62834619140625,-0.2662982940673828,-0.017106056213378906,0.1009131669998169
1712257413875352300,7.638352294921875,-0.15446090698242188,0.03842806816101074,0.022561341524124146
1712257413885358300,7.6483583984375,-0.00279998779296875,0.05275416374206543,-0.025267183780670166
1712257413895364400,7.6583642578125,0.1461353302001953,0.06246519088745117,-0.02241155505180359
1712257413905370400,7.668370361328125,0.27414608001708984,0.051728248596191406,-0.017529457807540894
1712257413915376400,7.67837646484375,0.3018026351928711,0.04832744598388672,-0.015764504671096802
1712257413925382400,7.68838232421875,0.2779855728149414,0.03299117088317871,0.01516646146774292
1712257413935388700,7.698388671875,0.20816993713378906,-0.0031137466430664062,0.03618636727333069
1712257413945394700,7.708394775390625,0.12117195129394531,0.0023610591888427734,0.022507041692733765
1712257413955400700,7.718400634765625,-0.016162872314453125,0.026864051818847656,0.0014855265617370605
1712257413965406700,7.72840673828125,-0.09502029418945312,0.03350019454956055,-0.0038653314113616943
1712257413975412700,7.738412841796875,-0.12127304077148438,0.027774333953857422,0.0025072991847991943
1712257413985418800,7.748418701171875,-0.0768890380859375,0.009497880935668945,0.00785839557647705
1712257413995424800,7.7584248046875,-0.04763507843017578,0.011245489120483398,-0.0012013912200927734
1712257414005430800,7.7684306640625,-0.02841472625732422,-0.0008561611175537109,-0.04669100046157837
1712257414015436800,7.778436767578125,0.009213447570800781,0.010812520980834961,-0.003932952880859375
1712257414025442800,7.78844287109375,0.022813796997070312,0.012078285217285156,0.03628945350646973
1712257414035449000,7.798448974609375,0.012790679931640625,0.012622833251953125,0.021302074193954468
1712257414045455000,7.808455078125,-0.020529747009277344,0.041008710861206055,-0.011026263236999512
1712257414055461000,7.818461181640625,-0.039257049560546875,0.08795285224914551,-0.02329227328300476
1712257414065467100,7.828467041015625,-0.04373359680175781,0.07821297645568848,-0.03073868155479431
1712257414075473200,7.83847314453125,-0.010522842407226562,0.05482006072998047,-0.010918468236923218
1712257414085479200,7.848479248046875,0.041153907775878906,0.03612828254699707,0.00702744722366333
1712257414095485200,7.858485107421875,0.05942726135253906,0.002531766891479492,-0.01490136981010437
1712257414105491200,7.8684912109375,0.016608238220214844,0.0012814998626708984,-0.06135016679763794
1712257414115497200,7.878497314453125,-0.03469371795654297,0.027716875076293945,-0.07017472386360168
1712257414125503200,7.888503173828125,-0.0897665023803711,0.03477931022644043,-0.07542264461517334
1712257414135509500,7.898509521484375,-0.1581439971923828,0.032705068588256836,-0.062368959188461304
1712257414145515500,7.908515625,-0.1927928924560547,0.03165435791015625,-0.015027433633804321
1712257414155521500,7.918521484375,-0.14716339111328125,0.01727008819580078,0.08106693625450134
1712257414165527600,7.928527587890625,-0.17789459228515625,-0.01514744758605957,0.10230967402458191
1712257414175533600,7.938533447265625,-0.18493175506591797,-0.017811059951782227,0.0868653953075409
1712257414185539600,7.94853955078125,-0.16391563415527344,-0.010035037994384766,0.06709906458854675
1712257414195545600,7.958545654296875,-0.07763957977294922,-0.010815620422363281,0.03818228840827942
1712257414205551600,7.968551513671875,0.030640602111816406,0.007545948028564453,0.042903780937194824
1712257414215557600,7.9785576171875,0.1326150894165039,0.03431105613708496,0.029162079095840454
1712257414225563600,7.988563720703125,0.16736221313476562,0.06405806541442871,-0.07819664478302002
1712257414235570000,7.99856982421875,0.1548309326171875,0.08265542984008789,-0.18839138746261597
