time,seconds_elapsed,z,y,x
1712257462109537000,0.094537109375,-0.08981895446777344,0.2153031826019287,-0.03196510672569275
1712257462119537200,0.104537109375,-0.08821964263916016,0.20992374420166016,-0.03174605965614319
1712257462129536500,0.11453662109375,0.0719900131225586,0.14027714729309082,-0.009614288806915283
1712257462139536400,0.124536376953125,0.06453418731689453,0.13311386108398438,-0.011392354965209961
1712257462149536000,0.134535888671875,0.02843475341796875,0.10903477668762207,-0.03294050693511963
1712257462159535400,0.144535400390625,-0.01959514617919922,0.09670114517211914,0.001203298568725586
1712257462169534700,0.15453466796875,0.011430740356445312,0.11303377151489258,-0.012874305248260498
1712257462179533800,0.164533935546875,-0.0365447998046875,0.11735320091247559,-0.012389779090881348
1712257462189533200,0.174533203125,-0.11078357696533203,0.12850713729858398,-0.037587493658065796
1712257462199532500,0.184532470703125,-0.15857315063476562,0.11998200416564941,-0.028200864791870117
1712257462209532000,0.194531982421875,-0.1872119903564453,0.12583065032958984,-0.05933019518852234
1712257462219531300,0.20453125,-0.08419322967529297,0.1293184757232666,-0.04210793972015381
1712257462229530600,0.214530517578125,-0.06514167785644531,0.09278416633605957,-0.00875866413116455
1712257462239530200,0.2245302734375,-0.05821704864501953,0.054418087005615234,-0.018703043460845947
1712257462249529600,0.234529541015625,-0.0035429000854492188,0.047599077224731445,-0.02365472912788391
1712257462259529000,0.244529052734375,0.010241508483886719,0.04382133483886719,-0.01199224591255188
1712257462269528000,0.254528076171875,0.047705650329589844,0.05540776252746582,0.0035910606384277344
1712257462279527400,0.26452734375,0.032311439514160156,0.05817723274230957,0.02542346715927124
1712257462289526800,0.27452685546875,0.05758857727050781,0.10665082931518555,0.06340134143829346
1712257462299526000,0.28452587890625,0.04234790802001953,0.07567572593688965,0.023927688598632812
1712257462309525000,0.29452490234375,0.0030870437622070312,0.042528390884399414,0.02772003412246704
1712257462319524400,0.3045244140625,-0.002758026123046875,0.026508331298828125,0.036138713359832764
1712257462329523500,0.3145234375,-0.025488853454589844,0.025319337844848633,0.017911434173583984
1712257462339522600,0.3245224609375,-0.050681114196777344,0.060281991958618164,0.033026814460754395
1712257462349521700,0.334521728515625,-0.08761310577392578,0.044362545013427734,0.0498431921005249
1712257462359520800,0.344520751953125,-0.1340780258178711,0.02363300323486328,0.02772986888885498
1712257462369519900,0.354519775390625,-0.10649967193603516,-0.027737140655517578,-0.025030702352523804
1712257462379519000,0.36451904296875,-0.01724720001220703,-0.022411584854125977,-0.03833961486816406
1712257462389517800,0.374517822265625,0.07159996032714844,-0.027923583984375,-0.03407827019691467
1712257462399517000,0.384516845703125,0.03815746307373047,-0.0066089630126953125,-0.0006095767021179199
1712257462409516000,0.39451611328125,0.009751319885253906,0.021007776260375977,-0.007266879081726074
1712257462419515000,0.404514892578125,-0.0040760040283203125,0.07672333717346191,0.007425963878631592
1712257462429514000,0.414513916015625,-0.036780357360839844,0.09088873863220215,-0.0019890666007995605
1712257462439512800,0.424512939453125,0.0048065185546875,0.07604169845581055,0.0033665895462036133
1712257462449511700,0.43451171875,0.07246875762939453,0.03571605682373047,0.015714526176452637
1712257462459510800,0.4445107421875,0.07279777526855469,0.015578508377075195,0.0010790228843688965
1712257462469509600,0.454509521484375,0.018014907836914062,0.009882926940917969,0.013139963150024414
1712257462479508500,0.464508544921875,0.028011322021484375,0.022927522659301758,0.0011983513832092285
1712257462489507300,0.47450732421875,-0.007407188415527344,0.03816390037536621,0.001035153865814209
1712257462499506200,0.484506103515625,-0.042789459228515625,0.02460765838623047,-0.02094787359237671
1712257462509505000,0.494505126953125,-0.047142982482910156,-0.015014171600341797,-0.05473366379737854
1712257462519504000,0.50450390625,0.02481555938720703,-0.02993297576904297,-0.03236475586891174
1712257462529502700,0.514502685546875,0.043738365173339844,-0.03894400596618652,-0.043411821126937866
1712257462539501300,0.524501220703125,0.050581932067871094,-0.04051804542541504,-0.013289153575897217
1712257462549500200,0.534500244140625,0.054999351501464844,-0.04920077323913574,-0.0021788477897644043
1712257462559498800,0.544498779296875,0.013835906982421875,-0.0503695011138916,-0.0248451828956604
1712257462569497600,0.55449755859375,-0.005887031555175781,-0.015392780303955078,0.024912118911743164
1712257462579496200,0.56449609375,-0.0040130615234375,0.002835988998413086,0.02587789297103882
1712257462589494800,0.574494873046875,-0.014112472534179688,-0.03395891189575195,-0.021302103996276855
1712257462599493600,0.58449365234375,-0.021903038024902344,-0.06814241409301758,-0.034638434648513794
1712257462609492500,0.594492431640625,-0.02260875701904297,-0.05890631675720215,-0.02410265803337097
1712257462619491000,0.604490966796875,-0.06160545349121094,-0.05211496353149414,0.012741565704345703
1712257462629490000,0.614489990234375,-0.0693979263305664,-0.04788684844970703,-0.0107097327709198
1712257462639488800,0.62448876953125,-0.06282615661621094,-0.03882098197937012,-0.005708575248718262
1712257462649487400,0.6344873046875,-0.058589935302734375,-0.03224492073059082,0.015545547008514404
1712257462659486200,0.644486328125,-0.06629467010498047,0.03653359413146973,0.04610711336135864
1712257462669484800,0.65448486328125,-0.052010536193847656,0.08005309104919434,0.04994422197341919
1712257462679483600,0.664483642578125,-0.023092269897460938,0.08685994148254395,-0.018366634845733643
1712257462689482500,0.674482421875,0.013187408447265625,0.06429219245910645,-0.05026480555534363
1712257462699481000,0.684481201171875,0.051810264587402344,0.06332564353942871,-0.021667122840881348
1712257462709480000,0.69447998046875,0.04740142822265625,0.059781551361083984,0.02118450403213501
1712257462719478800,0.704478759765625,0.0646677017211914,0.053537845611572266,0.020367741584777832
1712257462729477400,0.714477294921875,0.05568885803222656,0.05897831916809082,0.019569814205169678
1712257462739476200,0.724476318359375,0.0300445556640625,0.05215334892272949,0.05226367712020874
1712257462749475000,0.73447509765625,0.0019817352294921875,0.05269265174865723,0.07480698823928833
1712257462759473700,0.7444736328125,0.029023170471191406,0.050870656967163086,0.034255266189575195
1712257462769472500,0.754472412109375,0.05601024627685547,0.013251781463623047,0.0011956095695495605
1712257462779471400,0.764471435546875,0.027848243713378906,0.016540050506591797,-0.0004337430000305176
1712257462789470000,0.774469970703125,-0.024168014526367188,-0.025922298431396484,0.016990244388580322
1712257462799468800,0.78446875,-0.06911468505859375,-0.056028127670288086,-0.018424570560455322
1712257462809467400,0.79446728515625,-0.06652355194091797,-0.05644941329956055,-0.04824504256248474
1712257462819466200,0.80446630859375,-0.033000946044921875,-0.044408321380615234,-0.036725401878356934
1712257462829465000,0.814465087890625,-0.021262168884277344,-0.03414201736450195,-0.012556254863739014
1712257462839463700,0.824463623046875,-0.05037975311279297,-0.03545546531677246,-0.004631996154785156
1712257462849462500,0.834462646484375,-0.07722187042236328,-0.04125070571899414,-0.013123750686645508
1712257462859461000,0.844461181640625,-0.07546520233154297,-0.02029252052307129,-0.009636163711547852
1712257462869460000,0.8544599609375,-0.037774085998535156,-0.008846521377563477,0.012296080589294434
1712257462879458800,0.864458740234375,-0.021490097045898438,-0.0025091171264648438,-0.0023645758628845215
1712257462889457700,0.874457763671875,-0.03140544891357422,-0.03017878532409668,-0.014348864555358887
1712257462899456300,0.884456298828125,-0.019632339477539062,-0.04875969886779785,-0.030833303928375244
1712257462909455000,0.894455078125,0.0063190460205078125,-0.06204652786254883,-0.0252818763256073
1712257462919453700,0.90445361328125,0.053475379943847656,-0.04553794860839844,-0.017251789569854736
1712257462929452500,0.91445263671875,0.03569221496582031,-0.013739347457885742,-0.011600196361541748
1712257462939451100,0.924451171875,0.07769012451171875,-0.024834156036376953,-0.015322864055633545
1712257462949449700,0.93444970703125,0.11241531372070312,-0.016412019729614258,0.02845519781112671
1712257462959448600,0.944448486328125,0.08742713928222656,-0.010720491409301758,-0.0002490878105163574
1712257462969447400,0.954447509765625,0.05801200866699219,0.01051783561706543,0.021718621253967285
1712257462979446000,0.964446044921875,0.00260162353515625,0.013988256454467773,0.009789526462554932
1712257462989444900,0.97444482421875,-0.0526123046875,0.03368353843688965,0.011717736721038818
1712257462999443500,0.984443359375,-0.07173728942871094,0.0337214469909668,0.02294081449508667
1712257463009442300,0.9944423828125,-0.03808116912841797,0.007024288177490234,-0.011002302169799805
1712257463019441000,1.00444091796875,-0.009163856506347656,-0.027027130126953125,-0.03285446763038635
1712257463029439700,1.014439697265625,-0.03530597686767578,-0.022912025451660156,-0.02294936776161194
1712257463039438600,1.0244384765625,-0.025574684143066406,-0.02111029624938965,-0.019954681396484375
1712257463049437200,1.034437255859375,0.005686759948730469,-0.019143342971801758,-0.010376989841461182
1712257463059436000,1.04443603515625,0.00806427001953125,0.0240628719329834,0.04436248540878296
1712257463069434600,1.0544345703125,-0.010897636413574219,0.04761767387390137,0.04311227798461914
1712257463079433500,1.06443359375,-0.024870872497558594,-0.0013091564178466797,0.04674810171127319
1712257463089432000,1.07443212890625,-0.014984130859375,-0.009238243103027344,0.059786438941955566
1712257463099431000,1.084430908203125,-0.002902984619140625,-0.01880478858947754,0.03622174263000488
1712257463109429800,1.0944296875,0.018514633178710938,-0.027548789978027344,0.038664817810058594
1712257463119428400,1.104428466796875,0.025376319885253906,-0.021346569061279297,0.05076092481613159
1712257463129427200,1.11442724609375,-0.025137901306152344,-0.015442848205566406,0.02711796760559082
1712257463139426000,1.124426025390625,-0.07793331146240234,-0.00991368293762207,-0.0012053251266479492
1712257463149424600,1.134424560546875,-0.07553863525390625,0.02150750160217285,-0.017219066619873047
1712257463159423500,1.144423583984375,-0.0658559799194336,0.0214536190032959,-0.0020151138305664062
1712257463169422300,1.15442236328125,-0.06094932556152344,0.004613399505615234,0.01071542501449585
1712257463179421000,1.1644208984375,-0.01784229278564453,-0.016609668731689453,0.039887845516204834
1712257463189419800,1.174419677734375,0.06815242767333984,-0.025142908096313477,0.03284096717834473
1712257463199418400,1.18441845703125,0.10366058349609375,0.017194271087646484,0.02612447738647461
1712257463209417200,1.194417236328125,0.07465362548828125,0.05176663398742676,0.027551591396331787
1712257463219416000,1.204416015625,0.022199630737304688,0.07506227493286133,-0.011023223400115967
1712257463229414700,1.21441455078125,-0.0704660415649414,0.07267284393310547,-0.06774559617042542
1712257463239413500,1.22441357421875,-0.0766458511352539,0.04757833480834961,-0.08964377641677856
1712257463249412400,1.234412353515625,-0.07822132110595703,0.03254985809326172,-0.09661614894866943
1712257463259411200,1.2444111328125,-0.041840553283691406,0.01133584976196289,-0.1340637505054474
1712257463269410000,1.25441015625,-0.032021522521972656,-0.021286487579345703,-0.0964651107788086
1712257463279409000,1.264408935546875,-0.017642974853515625,-0.048447370529174805,-0.029814481735229492
1712257463289408000,1.274407958984375,-0.07997989654541016,-0.0416254997253418,-0.02625858783721924
1712257463299406800,1.28440673828125,-0.0872344970703125,-0.05640220642089844,-0.029808223247528076
1712257463309406000,1.294406005859375,-0.07548236846923828,-0.03959083557128906,-0.03333058953285217
1712257463319404800,1.30440478515625,-0.020734786987304688,-0.05821084976196289,-0.028171449899673462
1712257463329404000,1.31440380859375,0.00977325439453125,-0.08772587776184082,0.0001035928726196289
1712257463339403000,1.324403076171875,0.051868438720703125,-0.08238625526428223,0.0229223370552063
1712257463349402000,1.334402099609375,0.07932853698730469,-0.08080005645751953,0.030300915241241455
1712257463359401200,1.344401123046875,0.10181236267089844,-0.05695748329162598,0.03226268291473389
1712257463369400300,1.354400390625,0.08609580993652344,-0.023849964141845703,0.00777888298034668
1712257463379399400,1.3643994140625,-0.0012102127075195312,0.005986928939819336,0.036671340465545654
1712257463389398500,1.3743984375,-0.07123565673828125,0.012594223022460938,-0.008463859558105469
1712257463399397600,1.384397705078125,-0.05959606170654297,0.02788233757019043,-0.005315244197845459
1712257463409396700,1.394396728515625,-0.05503082275390625,0.03802180290222168,0.03624701499938965
1712257463419395600,1.4043955078125,-0.06947898864746094,0.023913145065307617,0.014730632305145264
1712257463429394700,1.414394775390625,-0.031197547912597656,0.0359957218170166,0.014577388763427734
1712257463439393800,1.424393798828125,-0.028730392456054688,0.04304051399230957,0.011658966541290283
1712257463449393000,1.434392822265625,-0.021196365356445312,0.07073783874511719,0.018346011638641357
1712257463459392000,1.44439208984375,0.036945343017578125,0.08066701889038086,0.0320393443107605
1712257463469391000,1.45439111328125,0.047389984130859375,0.06134200096130371,0.04532986879348755
1712257463479390200,1.46439013671875,0.041054725646972656,0.015876054763793945,0.06024104356765747
1712257463489389300,1.474389404296875,0.08951187133789062,-0.0309906005859375,0.05057871341705322
1712257463499388400,1.484388427734375,0.1087808609008789,-0.02600550651550293,0.08567345142364502
1712257463509387500,1.494387451171875,0.06559944152832031,-0.04180192947387695,0.07693159580230713
1712257463519386600,1.50438671875,0.010446548461914062,-0.043184757232666016,0.06076490879058838
1712257463529385700,1.5143857421875,-0.042357444763183594,-0.07802629470825195,0.00203627347946167
1712257463539384800,1.524384765625,-0.04758930206298828,-0.06424355506896973,-0.03853115439414978
1712257463549383700,1.5343837890625,-0.04108905792236328,-0.09054875373840332,-0.0255814790725708
1712257463559382800,1.5443828125,-0.05399322509765625,-0.06343483924865723,-0.00515669584274292
1712257463569381600,1.554381591796875,-0.05972480773925781,-0.05550026893615723,-0.02750462293624878
1712257463579380700,1.564380615234375,-0.060553550720214844,-0.036040544509887695,-0.0278472900390625
1712257463589379600,1.574379638671875,-0.08274269104003906,-0.026798009872436523,-0.03271663188934326
1712257463599378400,1.58437841796875,-0.10477924346923828,-0.003839731216430664,-0.06781554222106934
1712257463609377300,1.594377197265625,-0.054915428161621094,-0.014862775802612305,-0.07532528042793274
1712257463619376000,1.604376220703125,0.01645374298095703,0.01719522476196289,-0.03407388925552368
1712257463629374700,1.614374755859375,0.04237842559814453,0.010927677154541016,-0.02944546937942505
1712257463639373600,1.62437353515625,0.015666961669921875,0.011695146560668945,-0.06536686420440674
1712257463649372200,1.6343720703125,-0.025281906127929688,0.031055450439453125,-0.0788872241973877
1712257463659371000,1.64437109375,0.008267402648925781,0.008800745010375977,-0.053887754678726196
1712257463669369600,1.65436962890625,-0.017937660217285156,0.026942968368530273,-0.012254595756530762
1712257463679368400,1.664368408203125,-0.03450489044189453,0.04492449760437012,-0.011474072933197021
1712257463689367300,1.6743671875,-0.017472267150878906,0.046051740646362305,-0.045114725828170776
1712257463699366000,1.684365966796875,-0.07213592529296875,0.05400443077087402,-0.009666740894317627
1712257463709364700,1.69436474609375,-0.049874305725097656,0.01322031021118164,0.034571051597595215
1712257463719363600,1.704363525390625,-0.013226509094238281,0.0420839786529541,0.050920724868774414
1712257463729362200,1.714362060546875,0.0593109130859375,0.023307323455810547,-0.0007666945457458496
1712257463739361000,1.724361083984375,0.04062461853027344,-0.016330718994140625,-0.016065746545791626
1712257463749359900,1.73435986328125,-0.016557693481445312,-0.0004405975341796875,0.04368102550506592
1712257463759358500,1.7443583984375,-0.011674880981445312,-0.0006363391876220703,0.052674829959869385
1712257463769357300,1.754357421875,0.033690452575683594,0.011934280395507812,0.0204085111618042
1712257463779356000,1.76435595703125,0.009589195251464844,-0.008902788162231445,0.04075276851654053
1712257463789354800,1.774354736328125,-0.038292884826660156,-0.018187999725341797,0.05338168144226074
1712257463799353600,1.784353515625,-0.030928611755371094,-0.018392324447631836,0.06802290678024292
1712257463809352200,1.794352294921875,-0.05705833435058594,-0.016206026077270508,0.024760901927947998
1712257463819351000,1.80435107421875,-0.09271240234375,-0.03577780723571777,0.02724248170852661
1712257463829350000,1.814349853515625,-0.12606430053710938,-0.0334932804107666,0.03442955017089844
1712257463839348500,1.824348388671875,-0.13077735900878906,-0.021407604217529297,0.02046746015548706
1712257463849347300,1.834347412109375,-0.07808208465576172,-0.0498957633972168,-0.02434694766998291
1712257463859346000,1.844345947265625,-0.030434608459472656,-0.07523560523986816,0.01979118585586548
1712257463869344800,1.8543447265625,-0.030862808227539062,-0.07598376274108887,0.046947181224823
1712257463879343600,1.864343505859375,0.01641845703125,-0.05217289924621582,0.02592533826828003
1712257463889342500,1.874342529296875,0.044376373291015625,-0.023068666458129883,0.026659607887268066
1712257463899341000,1.884341064453125,0.07947444915771484,-0.03450369834899902,0.01769089698791504
1712257463909340000,1.89433984375,0.09535026550292969,-0.03137683868408203,0.006476759910583496
1712257463919338500,1.90433837890625,0.07298564910888672,0.012227296829223633,0.038398563861846924
1712257463929337300,1.91433740234375,0.029447555541992188,0.04989790916442871,0.04611760377883911
1712257463939336200,1.924336181640625,-0.013604164123535156,0.06690263748168945,0.044011831283569336
1712257463949334800,1.934334716796875,-0.025058746337890625,0.03455996513366699,0.012914836406707764
1712257463959333600,1.944333740234375,-0.04123687744140625,0.018654346466064453,-0.029494047164916992
1712257463969332200,1.954332275390625,-0.0240325927734375,0.0149993896484375,-0.03275352716445923
1712257463979331000,1.9643310546875,0.009839057922363281,-0.014719247817993164,-0.0430455207824707
1712257463989329700,1.97432958984375,0.007559776306152344,-0.003094911575317383,-0.05993014574050903
1712257463999328500,1.98432861328125,-0.025869369506835938,0.010693550109863281,-0.0583806037902832
1712257464009327400,1.994327392578125,-0.04974937438964844,0.021987199783325195,-0.07019361853599548
1712257464019326000,2.004325927734375,-0.047224998474121094,-0.0077610015869140625,-0.10046488046646118
1712257464029324500,2.014324462890625,-0.04726409912109375,-0.02996349334716797,-0.08905544877052307
1712257464039323400,2.024323486328125,-0.023504257202148438,-0.013472557067871094,-0.08678439259529114
1712257464049322000,2.034322021484375,-0.05009651184082031,0.005588054656982422,-0.05063188076019287
1712257464059320800,2.04432080078125,-0.026352882385253906,-0.004206418991088867,-0.017127633094787598
1712257464069319400,2.0543193359375,-0.007447242736816406,-0.004052162170410156,-0.013566315174102783
1712257464079318300,2.064318359375,-0.0005044937133789062,-0.006148815155029297,-0.006112217903137207
1712257464089316900,2.07431689453125,0.0041484832763671875,-0.027626514434814453,-0.013623416423797607
1712257464099315700,2.084315673828125,-0.015079498291015625,-0.020479440689086914,-0.12460273504257202
1712257464109314600,2.094314453125,-0.06311416625976562,0.020171403884887695,0.07234150171279907
1712257464119313200,2.104313232421875,-0.058173179626464844,-0.04501533508300781,0.07744652032852173
1712257464129312000,2.11431201171875,-0.07019615173339844,-0.06146860122680664,-0.0574459433555603
1712257464139310800,2.124310791015625,-0.07294273376464844,-0.024596452713012695,-0.09957966208457947
1712257464149309400,2.134309326171875,-0.03749847412109375,-0.02115607261657715,-0.032310813665390015
1712257464159308300,2.144308349609375,-0.07851696014404297,-0.018040180206298828,0.010060429573059082
1712257464169307000,2.154306884765625,-0.08826923370361328,-0.010541915893554688,-0.005293607711791992
1712257464179305700,2.1643056640625,-0.04773902893066406,-0.02937150001525879,-0.0279066264629364
1712257464189304600,2.1743046875,0.011769294738769531,0.0026323795318603516,-0.00019419193267822266
1712257464199303200,2.18430322265625,0.01134490966796875,0.0038220882415771484,0.0007796585559844971
1712257464209302000,2.194302001953125,0.046939849853515625,0.038366079330444336,0.003154456615447998
1712257464219300900,2.20430078125,0.03739452362060547,-0.002523660659790039,0.03239041566848755
1712257464229299500,2.214299560546875,0.020793914794921875,-0.0317225456237793,0.06087583303451538
1712257464239298300,2.22429833984375,0.042281150817871094,-0.05280804634094238,0.0736878514289856
1712257464249297200,2.234297119140625,0.06823444366455078,-0.051160573959350586,0.0999804139137268
1712257464259295700,2.244295654296875,0.057982444763183594,-0.019723892211914062,0.1064034104347229
1712257464269294600,2.254294677734375,0.030994415283203125,0.006968498229980469,0.11459565162658691
1712257464279293200,2.264293212890625,0.028234481811523438,-0.0007457733154296875,0.06517606973648071
1712257464289292000,2.2742919921875,-0.015018463134765625,-0.045148372650146484,0.01160132884979248
1712257464299291000,2.284290771484375,-0.02472686767578125,-0.02515125274658203,-0.026698261499404907
1712257464309289500,2.29428955078125,-0.06304168701171875,0.00858926773071289,-0.058947235345840454
1712257464319288300,2.304288330078125,-0.11307430267333984,0.0245664119720459,-0.06859129667282104
1712257464329287200,2.314287109375,-0.13899517059326172,0.025473594665527344,-0.0725189745426178
1712257464339285800,2.32428564453125,-0.08347415924072266,0.08370566368103027,-0.047612279653549194
1712257464349284600,2.33428466796875,-0.07571125030517578,0.10083436965942383,-0.003600776195526123
1712257464359283500,2.344283447265625,-0.04357337951660156,0.08790469169616699,0.08081883192062378
1712257464369282300,2.3542822265625,-0.030396461486816406,0.038619041442871094,0.020602822303771973
1712257464379281400,2.364281494140625,-0.019791603088378906,0.02093338966369629,-0.027076631784439087
1712257464389280300,2.3742802734375,-0.0070037841796875,-0.0009605884552001953,-0.004778742790222168
1712257464399279400,2.384279296875,-0.030295372009277344,-0.019823551177978516,0.02172994613647461
1712257464409278200,2.3942783203125,-0.04419517517089844,-0.0235750675201416,0.03055340051651001
1712257464419277300,2.40427734375,-0.029582977294921875,-0.03363823890686035,0.014525413513183594
1712257464429276400,2.4142763671875,-0.0247802734375,-0.07163691520690918,0.010125160217285156
1712257464439275300,2.424275146484375,0.034773826599121094,-0.0895543098449707,0.006186485290527344
1712257464449274400,2.4342744140625,0.08180904388427734,-0.06976795196533203,0.018808364868164062
1712257464459273500,2.4442734375,0.08072948455810547,-0.04697155952453613,-0.0038272738456726074
1712257464469272600,2.4542724609375,0.027021408081054688,-0.029227495193481445,-0.044943779706954956
1712257464479271700,2.464271728515625,-0.026330947875976562,-0.0008530616760253906,-0.02745497226715088
1712257464489270500,2.4742705078125,-0.07706832885742188,-0.03067493438720703,-0.007394671440124512
1712257464499269600,2.48426953125,-0.02981853485107422,-0.0359039306640625,-0.016504228115081787
1712257464509268700,2.494268798828125,0.02924823760986328,-0.03814554214477539,0.004957854747772217
1712257464519267800,2.504267822265625,0.03322792053222656,-0.030676841735839844,0.021263420581817627
1712257464529267000,2.514266845703125,0.0038957595825195312,0.00011706352233886719,0.04208874702453613
1712257464539265800,2.524265869140625,-0.04186058044433594,-0.008431434631347656,0.04350638389587402
1712257464549265000,2.534264892578125,-0.07782745361328125,-0.034429311752319336,0.021024644374847412
1712257464559264000,2.544263916015625,-0.07787418365478516,-0.03181195259094238,-0.005711793899536133
1712257464569263000,2.55426318359375,-0.05168914794921875,-0.028935670852661133,-0.041580021381378174
1712257464579262200,2.56426220703125,-0.04007911682128906,-0.013505697250366211,-0.01471787691116333
1712257464589261000,2.574260986328125,-0.06908607482910156,0.0040781497955322266,-0.04787766933441162
1712257464599260200,2.58426025390625,-0.035721778869628906,-0.0003104209899902344,-0.03775966167449951
1712257464609259300,2.59425927734375,0.016862869262695312,-0.011987686157226562,-0.006653845310211182
1712257464619258400,2.60425830078125,0.02157878875732422,0.029053211212158203,0.023892104625701904
1712257464629257500,2.614257568359375,0.0026111602783203125,0.05736827850341797,0.03965276479721069
1712257464639256300,2.62425634765625,-0.013682365417480469,0.07760167121887207,0.02183699607849121
1712257464649255400,2.63425537109375,-0.013040542602539062,0.05893111228942871,-0.017311036586761475
1712257464659254300,2.644254150390625,0.01866436004638672,0.04034018516540527,-0.007890880107879639
1712257464669253000,2.654253173828125,0.05012798309326172,0.04881715774536133,-0.022180616855621338
1712257464679252200,2.664252197265625,0.03373432159423828,0.014109134674072266,-0.0053626298904418945
1712257464689250800,2.674250732421875,-0.054535865783691406,0.013067960739135742,-0.00046694278717041016
1712257464699249700,2.684249755859375,-0.0469207763671875,0.011724233627319336,-0.0030792951583862305
1712257464709248500,2.69424853515625,-0.05361652374267578,0.0054433345794677734,-0.005882203578948975
1712257464719247400,2.704247314453125,-0.0651102066040039,-0.022385597229003906,-0.022852540016174316
1712257464729246000,2.714245849609375,-0.05770587921142578,-0.04475116729736328,-0.017464756965637207
1712257464739244800,2.724244873046875,-0.05056285858154297,-0.03032088279724121,-0.02669525146484375
1712257464749243400,2.734243408203125,-0.036370277404785156,-0.015449762344360352,-0.02403581142425537
1712257464759242200,2.7442421875,-0.053348541259765625,0.009147405624389648,0.016913771629333496
1712257464769240800,2.75424072265625,-0.07976150512695312,-0.02163410186767578,0.021159708499908447
1712257464779239700,2.76423974609375,-0.10628128051757812,-0.05677437782287598,-0.05171644687652588
1712257464789238300,2.77423828125,-0.0038900375366210938,-0.023842573165893555,0.04405641555786133
1712257464799237000,2.784237060546875,0.09830760955810547,-0.08590245246887207,-0.031035542488098145
1712257464809235700,2.794235595703125,0.08528614044189453,-0.07055926322937012,-0.04779055714607239
1712257464819234600,2.804234619140625,0.05309104919433594,-0.029111385345458984,-0.05092364549636841
1712257464829233400,2.8142333984375,0.01163482666015625,-0.003107309341430664,-0.015374064445495605
1712257464839232000,2.82423193359375,-0.015196800231933594,0.036531686782836914,-0.004368782043457031
1712257464849230800,2.83423095703125,-0.013040542602539062,0.0299069881439209,-0.03913116455078125
1712257464859229400,2.8442294921875,0.005978584289550781,0.010970354080200195,-0.011579275131225586
1712257464869228300,2.854228271484375,0.04178142547607422,-0.012743234634399414,0.02504497766494751
1712257464879227100,2.86422705078125,0.08247089385986328,-0.0007374286651611328,0.027486145496368408
1712257464889225700,2.874225830078125,0.06103229522705078,0.0036628246307373047,0.003734111785888672
1712257464899224600,2.884224609375,0.03748035430908203,-0.014410734176635742,0.0016336441040039062
1712257464909223400,2.894223388671875,0.09061431884765625,0.022390127182006836,-0.005389750003814697
1712257464919222000,2.904221923828125,0.13186264038085938,0.04456639289855957,0.016207635402679443
1712257464929220900,2.914220947265625,0.11584854125976562,0.023002147674560547,0.030632436275482178
1712257464939219700,2.9242197265625,0.1337108612060547,0.01953268051147461,0.03740823268890381
1712257464949218300,2.93421826171875,0.1663198471069336,0.02214956283569336,0.06265580654144287
1712257464959217200,2.944217041015625,0.15957164764404297,0.025138139724731445,0.023951947689056396
1712257464969215700,2.9542158203125,0.21816062927246094,-0.01478719711303711,-0.060040563344955444
1712257464979214600,2.964214599609375,0.29994869232177734,-0.02875995635986328,-0.11531528830528259
1712257464989213400,2.97421337890625,0.3238086700439453,0.008795976638793945,-0.0007678866386413574
1712257464999212000,2.9842119140625,0.39104175567626953,0.06936192512512207,0.0204695463180542
1712257465009211000,2.9942109375,0.4324531555175781,0.06852960586547852,-0.01731055974960327
1712257465019209700,3.004209716796875,0.43401622772216797,0.07747864723205566,-0.006350815296173096
1712257465029208300,3.014208251953125,0.18062114715576172,-0.062079668045043945,-0.061312586069107056
1712257465039207200,3.024207275390625,0.6306276321411133,0.03624296188354492,0.04888039827346802
1712257465049206000,3.0342060546875,0.6514415740966797,-0.0015821456909179688,0.18286120891571045
1712257465059204600,3.04420458984375,0.6447830200195312,0.04277205467224121,0.1479896903038025
1712257465069203500,3.054203369140625,0.7086696624755859,0.0799403190612793,0.0872807502746582
1712257465079202000,3.0642021484375,0.9514846801757812,0.13582539558410645,0.061885952949523926
1712257465089201000,3.074200927734375,1.019486427307129,0.15479493141174316,-0.05643942952156067
1712257465099199500,3.084199462890625,1.0119333267211914,0.12795543670654297,0.04121214151382446
1712257465109198300,3.0941982421875,0.8946037292480469,0.08857488632202148,0.16030174493789673
1712257465119197000,3.104197021484375,0.4049825668334961,0.24197864532470703,0.01568084955215454
1712257465129195800,3.11419580078125,0.12489509582519531,0.06287527084350586,0.025936901569366455
1712257465139194600,3.124194580078125,-0.14607524871826172,0.056955814361572266,0.20570915937423706
1712257465149193200,3.134193115234375,0.1638936996459961,0.12213468551635742,0.1992618441581726
1712257465159192000,3.144192138671875,0.25203990936279297,0.01635265350341797,0.10871666669845581
1712257465169190700,3.154190673828125,0.5061836242675781,0.05317258834838867,0.11789792776107788
1712257465179189500,3.164189453125,-0.03608226776123047,0.021572113037109375,-0.10850229859352112
1712257465189188000,3.17418798828125,-0.15826034545898438,-0.02863597869873047,-0.2519543766975403
1712257465199187000,3.18418701171875,0.0007848739624023438,-0.024586200714111328,-0.12560540437698364
1712257465209185500,3.194185546875,0.13533306121826172,-0.01851034164428711,-0.10512006282806396
1712257465219184400,3.204184326171875,0.2162156105041504,-0.03404521942138672,-0.10401663184165955
1712257465229183200,3.214183349609375,-0.01860523223876953,-0.06676912307739258,-0.09735655784606934
1712257465239325400,3.224325439453125,-0.2284235954284668,-0.1870255470275879,-0.04459419846534729
1712257465249324300,3.23432421875,-0.5105342864990234,-0.23944520950317383,0.038316160440444946
1712257465259323100,3.2443232421875,-0.6666073799133301,-0.1776561737060547,0.11735978722572327
1712257465269321700,3.25432177734375,-0.8451018333435059,-0.016043663024902344,0.09879326820373535
1712257465279320600,3.264320556640625,-1.1148366928100586,0.07175350189208984,0.17156046628952026
1712257465289319200,3.274319091796875,-1.1442089080810547,0.040608882904052734,0.15832602977752686
1712257465299318000,3.284318115234375,-1.140345573425293,0.03224802017211914,0.169907808303833
1712257465309316600,3.294316650390625,-0.9376282691955566,-0.05249214172363281,0.1823561191558838
1712257465319315500,3.3043154296875,-0.7096905708312988,-0.11719131469726562,0.08723372220993042
1712257465329314300,3.314314208984375,-0.3027653694152832,-0.14132308959960938,0.15327614545822144
1712257465339313000,3.32431298828125,0.061977386474609375,-0.17194652557373047,0.1759953498840332
1712257465349311700,3.334311767578125,0.5499043464660645,-0.23307323455810547,0.03405416011810303
1712257465359310300,3.344310302734375,0.4971628189086914,-0.3143434524536133,-0.09327009320259094
1712257465369309200,3.35430908203125,0.16963434219360352,-0.367307186126709,-0.2224520444869995
1712257465379308000,3.36430810546875,-0.32684993743896484,-0.2700386047363281,-0.2444145381450653
1712257465389307000,3.374306884765625,-0.7468852996826172,-0.09796142578125,-0.1422896385192871
1712257465399305500,3.384305419921875,-0.9929103851318359,0.048615455627441406,0.058520615100860596
1712257465409304300,3.39430419921875,-0.9954471588134766,0.1330733299255371,0.2444184422492981
1712257465419303000,3.404302978515625,-0.6678705215454102,0.3171076774597168,0.37997138500213623
1712257465429301800,3.4143017578125,-0.2401595115661621,0.2533245086669922,0.641697108745575
1712257465439300600,3.424300537109375,0.1653132438659668,0.13600778579711914,0.7060447931289673
1712257465449299200,3.43429931640625,0.18131208419799805,-0.01651287078857422,0.22316789627075195
1712257465459298000,3.444298095703125,-0.13353204727172852,-0.10014915466308594,0.1255408525466919
1712257465469297200,3.454297119140625,-0.31531381607055664,0.04372072219848633,0.1385941505432129
1712257465479296000,3.4642958984375,-0.33019161224365234,0.053229331970214844,0.06450730562210083
1712257465489294800,3.474294921875,-0.23162317276000977,-0.3438854217529297,-0.12137255072593689
1712257465499293700,3.484293701171875,-0.3036532402038574,-0.5402541160583496,-0.1086679995059967
1712257465509292500,3.49429248046875,-0.4602351188659668,-0.22463703155517578,-0.044771432876586914
1712257465519291400,3.50429150390625,-0.36692380905151367,-0.054999351501464844,0.03900426626205444
1712257465529290200,3.514290283203125,-0.12337303161621094,-0.029710769653320312,0.07747620344161987
1712257465539289000,3.5242890625,-0.09605789184570312,-0.06767082214355469,0.12814533710479736
1712257465549288000,3.534287841796875,-0.21454143524169922,-0.08707237243652344,0.20714658498764038
1712257465559286800,3.544286865234375,-0.3929581642150879,-0.12715816497802734,0.1256418228149414
1712257465569285600,3.55428564453125,-0.36556148529052734,-0.11696529388427734,0.039940834045410156
1712257465579284500,3.564284423828125,-0.11215925216674805,-0.13957977294921875,0.09121966361999512
1712257465589283300,3.574283447265625,0.24510431289672852,0.012022018432617188,0.010400235652923584
1712257465599282200,3.5842822265625,0.6954894065856934,0.05923175811767578,-0.0275728702545166
1712257465609281000,3.594281005859375,1.0342636108398438,0.023952484130859375,-0.09082823991775513
1712257465619280000,3.60427978515625,0.8601698875427246,0.049233436584472656,-0.004940032958984375
1712257465629278700,3.61427880859375,0.18634891510009766,0.15021896362304688,0.10207408666610718
1712257465639277600,3.624277587890625,-0.488757848739624,0.1437234878540039,0.20234143733978271
1712257465649276400,3.6342763671875,-1.0021815299987793,0.015180587768554688,0.2887336015701294
1712257465659275300,3.644275146484375,-1.2140312194824219,-0.035050392150878906,0.17397671937942505
1712257465669274000,3.654274169921875,-0.770209550857544,0.026305198669433594,0.28924667835235596
1712257465679273000,3.66427294921875,0.06003713607788086,0.09798336029052734,0.37021714448928833
1712257465689271800,3.674271728515625,0.7646389007568359,-0.035399436950683594,0.10614019632339478
1712257465699270700,3.684270751953125,0.8442349433898926,-0.14285755157470703,-0.05033516883850098
1712257465709269500,3.69426953125,0.4299783706665039,-0.2187795639038086,-0.06275391578674316
1712257465719268400,3.704268310546875,-0.2894580364227295,-0.19145870208740234,0.01897531747817993
1712257465729267200,3.71426708984375,-0.8965635299682617,-0.08664703369140625,0.044141948223114014
1712257465739266000,3.72426611328125,-1.296025037765503,0.015358924865722656,0.14723026752471924
1712257465749265000,3.734264892578125,-1.1992592811584473,0.09179973602294922,0.2823218107223511
1712257465759263700,3.744263671875,-0.4260079860687256,0.0986480712890625,0.364467978477478
1712257465769262600,3.7542626953125,0.5093097686767578,0.18529319763183594,0.36082929372787476
1712257465779261200,3.76426123046875,1.0356287956237793,0.13907337188720703,0.20620250701904297
1712257465789259800,3.774259765625,0.8012256622314453,-0.0025768280029296875,0.10062891244888306
1712257465799258600,3.784258544921875,0.0857841968536377,-0.08743667602539062,0.09058290719985962
1712257465809257200,3.79425732421875,-0.6816096305847168,-0.07070446014404297,0.1976262927055359
1712257465819256000,3.804256103515625,-0.8377161026000977,0.24679851531982422,0.32958292961120605
1712257465829254700,3.814254638671875,-0.5863299369812012,0.2540454864501953,0.42526179552078247
1712257465839253500,3.82425341796875,-1.15944504737854,-0.28919410705566406,0.2935364246368408
1712257465849252400,3.83425244140625,-1.4419163465499878,-0.5286369323730469,0.10196638107299805
1712257465859251000,3.8442509765625,-1.4624824523925781,-0.3911399841308594,0.05608415603637695
1712257465869249800,3.854249755859375,-1.273144006729126,-0.2494354248046875,0.12482458353042603
1712257465879248600,3.86424853515625,-0.9219415187835693,-0.10826683044433594,0.34435778856277466
1712257465889247200,3.874247314453125,-0.4866292476654053,-0.04729270935058594,0.5895958542823792
1712257465899246000,3.88424609375,-0.07970476150512695,0.04251384735107422,0.6744107604026794
1712257465909245000,3.894244873046875,0.14519882202148438,0.037235260009765625,0.4817485809326172
1712257465919243500,3.904243408203125,0.17564749717712402,0.05724906921386719,0.24553394317626953
1712257465929242400,3.914242431640625,0.03369569778442383,-0.0053539276123046875,0.11121338605880737
1712257465939241000,3.924240966796875,-0.026911020278930664,-0.04431629180908203,0.11010801792144775
1712257465949239800,3.93423974609375,-0.08915019035339355,-0.04440593719482422,0.10968279838562012
1712257465959238700,3.94423876953125,-0.10987329483032227,-0.04123973846435547,0.0932762622833252
1712257465969237200,3.9542373046875,-0.09493756294250488,-0.02962017059326172,0.12013280391693115
1712257465979236000,3.964236083984375,-0.20764470100402832,-0.07166194915771484,0.13391339778900146
1712257465989235000,3.97423486328125,-0.3960404396057129,-0.15528297424316406,0.10308527946472168
1712257465999233500,3.984233642578125,-0.5558404922485352,-0.24419403076171875,0.07411235570907593
1712257466009232400,3.994232421875,-0.5729458332061768,-0.2708883285522461,0.017417311668395996
1712257466019231200,4.004231201171875,-0.6868305206298828,-0.3140754699707031,-0.0350833535194397
1712257466029229800,4.014229736328125,-0.8433802127838135,-0.32767200469970703,-0.07261013984680176
1712257466039228700,4.024228759765625,-0.9087872505187988,-0.3630380630493164,-0.0740358829498291
1712257466049227300,4.034227294921875,-1.0731768608093262,-0.37877464294433594,-0.13071352243423462
1712257466059226000,4.04422607421875,-1.0569076538085938,-0.4678058624267578,-0.15790945291519165
1712257466069224700,4.054224609375,-0.9412484169006348,-0.4418926239013672,0.03283590078353882
1712257466079223600,4.0642236328125,-0.794813871383667,-0.5152149200439453,0.20203691720962524
1712257466089222400,4.074222412109375,-0.4751014709472656,-0.5719766616821289,0.28693097829818726
1712257466099221000,4.084220947265625,-0.13221979141235352,-0.6478939056396484,0.3100947141647339
1712257466109219800,4.0942197265625,0.19469690322875977,-0.6759190559387207,0.21102726459503174
1712257466119218700,4.10421875,0.5527348518371582,-0.740941047668457,0.07991224527359009
1712257466129217300,4.11421728515625,0.8211874961853027,-0.6142816543579102,-0.041943907737731934
1712257466139216100,4.124216064453125,0.9874892234802246,-0.4697737693786621,-0.24819636344909668
1712257466149214700,4.134214599609375,0.9635286331176758,-0.6307640075683594,-0.34094542264938354
1712257466159213600,4.144213623046875,0.8043432235717773,-0.5566868782043457,-0.38177499175071716
1712257466169212200,4.154212158203125,0.4491691589355469,-0.10788965225219727,-0.1330837607383728
1712257466179211000,4.1642109375,0.11552047729492188,0.39897632598876953,0.26657140254974365
1712257466189209600,4.174209716796875,-0.1499767303466797,0.6192421913146973,0.4127601385116577
1712257466199208400,4.18420849609375,-0.4611077308654785,0.4769906997680664,0.3658701777458191
1712257466209207000,4.19420703125,-0.6763739585876465,0.27158308029174805,0.28695523738861084
1712257466219206000,4.204205810546875,-0.7225308418273926,0.20892953872680664,-0.02427387237548828
1712257466229204500,4.21420458984375,-0.37216806411743164,0.03281593322753906,0.09056103229522705
1712257466239203300,4.224203369140625,0.18282032012939453,-0.11377716064453125,0.20966815948486328
1712257466249202200,4.2342021484375,0.8401141166687012,-0.15021705627441406,0.2731885313987732
1712257466259200800,4.24420068359375,1.467123031616211,-0.2548956871032715,0.21370267868041992
1712257466269199600,4.25419970703125,1.76316499710083,-0.3258504867553711,0.025170981884002686
1712257466279198200,4.2641982421875,1.7229723930358887,-0.2990751266479492,-0.0268515944480896
1712257466289197000,4.274197021484375,1.4435834884643555,-0.20171403884887695,0.13746941089630127
1712257466299196000,4.28419580078125,0.936182975769043,0.034665584564208984,0.3243604898452759
1712257466309194500,4.294194580078125,0.45810461044311523,0.18503379821777344,0.4248260259628296
1712257466319193300,4.304193359375,0.07658195495605469,0.15772724151611328,0.49081122875213623
1712257466329192000,4.31419189453125,-0.19635677337646484,0.056168556213378906,0.38562238216400146
1712257466339190800,4.324190673828125,-0.4483828544616699,-0.016556739807128906,0.16420620679855347
1712257466349189600,4.334189697265625,-0.5679082870483398,-0.15909767150878906,-0.03374147415161133
1712257466359188200,4.344188232421875,-0.5933666229248047,-0.2437739372253418,-0.0734865665435791
1712257466369187000,4.35418701171875,-0.5954465866088867,-0.22324180603027344,0.017261266708374023
1712257466379186000,4.36418603515625,-0.542569637298584,-0.20530939102172852,0.0561257004737854
1712257466389184500,4.3741845703125,-0.4501514434814453,-0.03330802917480469,0.0350341796875
1712257466399183400,4.384183349609375,-0.4829597473144531,-0.1196908950805664,0.015585601329803467
1712257466409182200,4.39418212890625,-0.47052669525146484,-0.3165168762207031,-0.05400049686431885
1712257466419180800,4.404180908203125,-0.32764339447021484,-0.4189023971557617,-0.1485689878463745
1712257466429179600,4.4141796875,-0.0878143310546875,-0.39057397842407227,-0.16721850633621216
1712257466439178200,4.42417822265625,0.08022117614746094,-0.27101898193359375,-0.1421300768852234
1712257466449177000,4.434177001953125,0.21910905838012695,-0.1850414276123047,-0.1077953577041626
1712257466459176000,4.444176025390625,0.26022863388061523,-0.18691492080688477,-0.15663963556289673
1712257466469174500,4.454174560546875,0.27525854110717773,-0.16689777374267578,-0.14584314823150635
1712257466479173400,4.46417333984375,0.2630767822265625,-0.11186456680297852,-0.07253670692443848
1712257466489172200,4.474172119140625,0.26805591583251953,-0.10442543029785156,0.04080897569656372
1712257466499171000,4.484171142578125,0.4592008590698242,-0.09317731857299805,0.09509390592575073
1712257466509170000,4.494169921875,0.6111211776733398,-0.0394902229309082,0.05523359775543213
1712257466519169000,4.5041689453125,0.6139621734619141,-0.013486385345458984,0.028188586235046387
1712257466529168000,4.51416796875,0.4734020233154297,-0.03592205047607422,0.04382526874542236
1712257466539166700,4.524166748046875,0.3909749984741211,-0.033191680908203125,0.05451148748397827
1712257466549165800,4.534165771484375,0.2661170959472656,-0.007681846618652344,0.1418512463569641
1712257466559165000,4.5441650390625,0.05984973907470703,-0.018447399139404297,0.1656428575515747
1712257466569163800,4.554163818359375,-0.1615734100341797,0.06478691101074219,0.18738502264022827
1712257466579163000,4.564162841796875,-0.4476804733276367,0.12987184524536133,-0.14789143204689026
1712257466589162000,4.574161865234375,-0.7328109741210938,0.12171459197998047,-0.09273329377174377
1712257466599161000,4.5841611328125,-0.6952853202819824,-0.004545688629150391,-0.11055421829223633
1712257466609160200,4.59416015625,-0.3782367706298828,-0.17374181747436523,-0.19222784042358398
1712257466619159300,4.6041591796875,-0.026948928833007812,-0.20340824127197266,-0.15922144055366516
1712257466629158100,4.614158203125,0.21922969818115234,-0.18780183792114258,-0.05907002091407776
1712257466639157200,4.6241572265625,0.3672628402709961,-0.22933244705200195,0.03594547510147095
1712257466649156400,4.63415625,0.4207925796508789,-0.2303152084350586,0.13555103540420532
1712257466659155500,4.644155517578125,0.4046030044555664,-0.14744186401367188,0.10459291934967041
1712257466669154600,4.654154541015625,0.33331871032714844,-0.13262128829956055,0.11392581462860107
1712257466679153400,4.6641533203125,0.10274982452392578,-0.10526275634765625,0.12893831729888916
1712257466689152500,4.674152587890625,-0.07071685791015625,-0.11375188827514648,0.11950129270553589
1712257466699151600,4.684151611328125,-0.09615039825439453,-0.049251556396484375,0.08660233020782471
1712257466709150700,4.694150634765625,-0.01995372772216797,-0.024369239807128906,-0.06268489360809326
1712257466719149800,4.70414990234375,0.01617431640625,-0.030801773071289062,-0.12247699499130249
1712257466729148700,4.714148681640625,0.23980045318603516,-0.1737351417541504,-0.12496048212051392
1712257466739147800,4.724147705078125,0.4322671890258789,-0.2476515769958496,-0.08345121145248413
1712257466749147000,4.73414697265625,0.5570917129516602,-0.1917574405670166,-0.04501974582672119
1712257466759146000,4.74414599609375,0.5415239334106445,-0.11270546913146973,-0.008854568004608154
1712257466769145000,4.75414501953125,0.4626293182373047,-0.05523037910461426,0.021818697452545166
1712257466779144000,4.76414404296875,0.4207744598388672,0.009345769882202148,0.12710297107696533
1712257466789143000,4.77414306640625,0.34838199615478516,-0.013832807540893555,0.17613136768341064
1712257466799142100,4.78414208984375,0.28075313568115234,-0.032967567443847656,0.22378700971603394
1712257466809141000,4.79414111328125,0.162109375,-0.022861957550048828,0.1686168909072876
1712257466819139800,4.804139892578125,0.0827016830444336,0.010851621627807617,0.08545392751693726
1712257466829138700,4.814138671875,0.07047748565673828,0.009775876998901367,-0.009632408618927002
1712257466839137500,4.824137451171875,0.057735443115234375,-0.05327653884887695,-0.07326555252075195
1712257466849136000,4.83413623046875,0.0729532241821289,-0.1369922161102295,-0.04078704118728638
1712257466859135000,4.844135009765625,0.1524190902709961,-0.13175249099731445,-0.03129810094833374
1712257466869133600,4.854133544921875,0.2227773666381836,-0.10664772987365723,0.030948996543884277
1712257466879132400,4.86413232421875,0.24878597259521484,-0.09966182708740234,0.0582883358001709
1712257466889131000,4.874131103515625,0.1829671859741211,-0.09291625022888184,0.04888647794723511
1712257466899129900,4.8841298828125,0.12592792510986328,-0.06739950180053711,0.03848898410797119
1712257466909128400,4.89412841796875,0.043776512145996094,-0.019374847412109375,0.07123315334320068
1712257466919127300,4.904127197265625,0.0009784698486328125,0.011519193649291992,0.09450536966323853
1712257466929126000,4.9141259765625,-0.06454944610595703,0.011360406875610352,0.02324855327606201
1712257466939124700,4.924124755859375,-0.1250286102294922,-0.00788259506225586,-0.048615992069244385
1712257466949123300,4.934123291015625,-0.19044876098632812,-0.02842879295349121,-0.06338131427764893
1712257466959122200,4.9441220703125,-0.18955612182617188,-0.013041496276855469,-0.027340948581695557
1712257466969121000,4.95412109375,-0.15143775939941406,0.015215396881103516,-0.02159780263900757
1712257466979119600,4.96411962890625,-0.06662273406982422,0.037323713302612305,0.0000591278076171875
1712257466989118500,4.974118408203125,0.048142433166503906,0.01973581314086914,-0.0412975549697876
1712257466999117300,4.984117431640625,0.17452144622802734,0.013047456741333008,-0.05506587028503418
1712257467009116000,4.994115966796875,0.21273136138916016,-0.011168956756591797,-0.09641510248184204
1712257467019114800,5.00411474609375,0.22100257873535156,-0.019350290298461914,-0.05663108825683594
1712257467029113300,5.01411328125,0.21151161193847656,-0.016930103302001953,-0.014558255672454834
1712257467039112200,5.0241123046875,0.062087059020996094,-0.02575826644897461,0.0028336644172668457
1712257467049111000,5.034111083984375,-0.03384208679199219,-0.020951032638549805,-0.01467430591583252
1712257467059109600,5.044109619140625,-0.06725502014160156,-0.01741194725036621,-0.032423436641693115
1712257467069108500,5.0541083984375,-0.0984659194946289,-0.01806640625,-0.03844499588012695
1712257467079107300,5.064107421875,-0.13494396209716797,-0.00045371055603027344,-0.026063621044158936
1712257467089106000,5.07410595703125,-0.07622432708740234,-0.026601552963256836,-0.002310633659362793
1712257467099104800,5.084104736328125,0.025115966796875,-0.03686881065368652,-0.024822235107421875
1712257467109103600,5.094103515625,0.04020404815673828,-0.04207205772399902,0.002517402172088623
1712257467119102200,5.104102294921875,0.002899169921875,-0.021710872650146484,0.02745378017425537
1712257467129101000,5.11410107421875,-0.014752388000488281,0.014088869094848633,-0.005288124084472656
1712257467139099600,5.124099609375,-0.06307029724121094,0.04636788368225098,0.002072155475616455
1712257467149098500,5.134098388671875,-0.056160926818847656,0.015914201736450195,0.00961291790008545
1712257467159097300,5.144097412109375,-0.02786731719970703,-0.04522991180419922,0.01003354787826538
1712257467169096000,5.154095947265625,-0.05977821350097656,-0.06470274925231934,0.02241694927215576
1712257467179094800,5.1640947265625,-0.03732585906982422,-0.04918837547302246,0.017644822597503662
1712257467189093600,5.17409375,0.03981781005859375,-0.016081571578979492,-0.014947652816772461
1712257467199092200,5.18409228515625,0.09778594970703125,-0.006745338439941406,0.016672909259796143
1712257467209091000,5.194091064453125,0.17291927337646484,-0.005396127700805664,0.05418795347213745
1712257467219089700,5.204089599609375,0.1598491668701172,-0.02410578727722168,-0.009519517421722412
1712257467229088500,5.214088623046875,0.11845684051513672,-0.03931021690368652,-0.05589216947555542
1712257467239087400,5.22408740234375,0.005585670471191406,-0.002996206283569336,-0.04407846927642822
1712257467249086000,5.2340859375,-0.07324695587158203,-0.0017688274383544922,-0.05092489719390869
1712257467259084800,5.244084716796875,-0.12540435791015625,0.024964332580566406,-0.034286320209503174
1712257467269083400,5.25408349609375,-0.17275238037109375,0.020723819732666016,-0.05202716588973999
1712257467279082200,5.264082275390625,-0.09346485137939453,0.05347275733947754,0.0006408095359802246
1712257467289080800,5.274080810546875,-0.0599517822265625,0.0755305290222168,0.06087011098861694
1712257467299079700,5.28407958984375,-0.03119373321533203,0.09313535690307617,0.1049996018409729
1712257467309078300,5.294078369140625,0.028908729553222656,0.10069131851196289,0.05279695987701416
1712257467319077000,5.3040771484375,0.0363616943359375,0.007325410842895508,-0.019742488861083984
1712257467329075700,5.31407568359375,0.009782791137695312,-0.020656585693359375,-0.053545236587524414
1712257467339074600,5.324074462890625,0.030762672424316406,-0.04110598564147949,-0.06352531909942627
1712257467349073200,5.3340732421875,0.0637044906616211,-0.05945897102355957,-0.04347264766693115
1712257467359072000,5.344072021484375,0.060647010803222656,-0.03460049629211426,-0.0564042329788208
1712257467369070800,5.35407080078125,0.0125274658203125,-0.017947673797607422,-0.01737445592880249
1712257467379069400,5.3640693359375,-0.049452781677246094,-0.043482065200805664,-0.0402829647064209
1712257467389068300,5.374068359375,-0.10143566131591797,-0.03397393226623535,-0.016543030738830566
1712257467399067000,5.38406689453125,-0.11743831634521484,-0.01935887336730957,0.031472742557525635
1712257467409065700,5.394065673828125,-0.07635116577148438,-0.046437740325927734,0.03729140758514404
1712257467419064300,5.404064208984375,-0.03602886199951172,-0.03279519081115723,0.02998971939086914
1712257467429063200,5.414063232421875,0.027851104736328125,-0.0660238265991211,0.0492669939994812
1712257467439062000,5.42406201171875,0.05320167541503906,-0.0558321475982666,0.03628063201904297
1712257467449060600,5.434060546875,0.04683113098144531,-0.07981491088867188,-0.003335714340209961
1712257467459059500,5.4440595703125,0.0020990371704101562,-0.07753324508666992,-0.06357771158218384
1712257467469058300,5.454058349609375,-0.02826404571533203,-0.04444718360900879,-0.05547112226486206
1712257467479057000,5.464056884765625,0.003711700439453125,-0.02137017250061035,0.008492767810821533
1712257467489055700,5.4740556640625,0.0693511962890625,0.008554935455322266,0.00515669584274292
1712257467499054600,5.4840546875,0.034615516662597656,-0.005126237869262695,-0.024556279182434082
1712257467509053200,5.49405322265625,0.0192718505859375,-0.014895915985107422,-0.041425347328186035
1712257467519052000,5.504052001953125,-0.0150909423828125,0.022821426391601562,-0.005529224872589111
1712257467529051000,5.51405078125,-0.056174278259277344,0.06174778938293457,0.025060951709747314
1712257467539049500,5.524049560546875,0.017902374267578125,0.0163271427154541,-0.023811280727386475
1712257467549048300,5.53404833984375,-0.008714675903320312,-0.05279970169067383,-0.06730163097381592
1712257467559047000,5.544046875,0.012187004089355469,-0.032453298568725586,-0.019195973873138428
1712257467569045800,5.554045654296875,-0.03150367736816406,0.04778265953063965,0.04254961013793945
1712257467579044600,5.564044677734375,-0.057982444763183594,0.06946659088134766,0.010139107704162598
1712257467589043500,5.57404345703125,-0.05299854278564453,0.013475656509399414,-0.019460558891296387
1712257467599042300,5.584042236328125,-0.026711463928222656,-0.0035855770111083984,-0.019998610019683838
1712257467609041200,5.594041259765625,0.02787017822265625,-0.0217587947845459,-0.0015996098518371582
1712257467619040000,5.6040400390625,0.060515403747558594,-0.012483358383178711,-0.004773914813995361
1712257467629038800,5.614038818359375,0.025961875915527344,-0.014743566513061523,-0.010287642478942871
1712257467639037700,5.62403759765625,-0.03243827819824219,-0.029244661331176758,-0.011022984981536865
1712257467649036500,5.63403662109375,-0.014227867126464844,-0.02454233169555664,-0.03580671548843384
1712257467659035600,5.64403564453125,0.0018777847290039062,-0.008527755737304688,0.005757689476013184
1712257467669034200,5.6540341796875,-0.015001296997070312,-0.03704524040222168,0.015877485275268555
1712257467679033000,5.664033203125,-0.03675079345703125,-0.06281375885009766,-0.020039737224578857
1712257467689032000,5.674031982421875,-0.08508586883544922,-0.06409668922424316,-0.03610038757324219
1712257467699030800,5.68403076171875,-0.07371902465820312,-0.06984734535217285,-0.03729206323623657
1712257467709029600,5.694029541015625,-0.021886825561523438,-0.07253098487854004,-0.024110019207000732
1712257467719028500,5.704028564453125,0.001125335693359375,-0.031768083572387695,-0.013726592063903809
1712257467729027300,5.71402734375,-0.016556739807128906,-0.0006549358367919922,0.008860766887664795
1712257467739026400,5.7240263671875,-0.07219600677490234,-0.01354360580444336,-0.007252693176269531
1712257467749025000,5.73402490234375,-0.05351734161376953,-0.009832620620727539,-0.009478211402893066
1712257467759024000,5.744024169921875,0.022556304931640625,0.0014810562133789062,0.025629162788391113
1712257467769023000,5.75402294921875,0.031513214111328125,0.005995273590087891,0.03374272584915161
1712257467779021600,5.764021484375,0.04284381866455078,0.003162384033203125,0.01644653081893921
1712257467789020700,5.774020751953125,-0.026986122131347656,0.025960922241210938,0.027918696403503418
1712257467799019500,5.78401953125,-0.12271881103515625,0.045259952545166016,0.03883934020996094
1712257467809018000,5.79401806640625,-0.06484508514404297,-0.0010900497436523438,0.032730281352996826
1712257467819017000,5.804016845703125,-0.028713226318359375,-0.04439043998718262,-0.02409464120864868
1712257467829016000,5.81401611328125,-0.052956581115722656,-0.03141665458679199,-0.055814146995544434
1712257467839015000,5.824014892578125,-0.0055561065673828125,-0.034868478775024414,-0.060401201248168945
1712257467849013800,5.834013671875,0.032108306884765625,-0.03801536560058594,-0.04039967060089111
1712257467859012600,5.8440126953125,0.0840597152709961,-0.06729435920715332,-0.0035581588745117188
1712257467869011500,5.854011474609375,0.10708045959472656,-0.021648406982421875,0.061476290225982666
1712257467879010300,5.86401025390625,0.1253948211669922,0.04558825492858887,0.09662216901779175
1712257467889009000,5.8740087890625,0.09852409362792969,0.02105402946472168,0.02126532793045044
1712257467899007700,5.8840078125,0.0357666015625,0.03432869911193848,-0.04993933439254761
1712257467909006600,5.894006591796875,0.0017023086547851562,-0.008107662200927734,-0.117983877658844
1712257467919005200,5.904005126953125,-0.04937171936035156,-0.026165008544921875,-0.057956159114837646
1712257467929004000,5.914004150390625,-0.023879051208496094,-0.06069755554199219,-0.03201085329055786
1712257467939002600,5.924002685546875,0.023136138916015625,-0.018085479736328125,-0.015128374099731445
1712257467949001200,5.934001220703125,-0.04701519012451172,0.012178182601928711,-0.02004110813140869
1712257467959000000,5.944,-0.1333770751953125,0.009984731674194336,-0.026013076305389404
1712257467968998700,5.95399853515625,-0.15708446502685547,0.011629104614257812,0.012573301792144775
1712257467978997500,5.96399755859375,-0.12081241607666016,-0.010877847671508789,0.01706904172897339
1712257467988996400,5.973996337890625,-0.06322193145751953,-0.0063436031341552734,0.007016241550445557
1712257467998995000,5.983994873046875,-0.0012378692626953125,0.013558149337768555,-0.00007575750350952148
1712257468008993800,5.993993896484375,-0.0014734268188476562,0.009276151657104492,-0.023296356201171875
1712257468018992600,6.00399267578125,-0.08784770965576172,0.021338939666748047,0.0048675537109375
1712257468028991200,6.0139912109375,-0.08053398132324219,-0.015281200408935547,-0.022471249103546143
1712257468038990000,6.023989990234375,-0.025524139404296875,-0.05363869667053223,-0.06222790479660034
1712257468048989000,6.033989013671875,0.038512229919433594,-0.0665128231048584,-0.06111711263656616
1712257468058987500,6.043987548828125,0.07332611083984375,-0.05170750617980957,-0.03333550691604614
1712257468068986400,6.053986328125,0.06730270385742188,-0.005281925201416016,0.02273082733154297
1712257468078985000,6.06398486328125,0.037670135498046875,0.009330511093139648,0.060871779918670654
1712257468088983800,6.07398388671875,0.006046295166015625,-0.01763319969177246,0.08340376615524292
1712257468098982700,6.083982666015625,0.008126258850097656,-0.013752937316894531,0.06658279895782471
1712257468108981200,6.093981201171875,0.038898468017578125,-0.024013280868530273,0.03253638744354248
1712257468118980000,6.10397998046875,0.05519676208496094,-0.05083441734313965,0.02531123161315918
1712257468128979000,6.11397900390625,0.0521392822265625,-0.0628516674041748,0.03547656536102295
1712257468138977500,6.1239775390625,0.04433250427246094,-0.07752370834350586,-0.018382489681243896
1712257468148976400,6.133976318359375,-0.03037261962890625,-0.056931257247924805,-0.0281180739402771
1712257468158975000,6.14397509765625,-0.0804443359375,-0.04804825782775879,-0.022939741611480713
1712257468168973800,6.153973876953125,-0.1397838592529297,-0.0064239501953125,-0.02545642852783203
1712257468178972700,6.16397265625,-0.1149749755859375,-0.0373992919921875,0.016540944576263428
1712257468188971300,6.17397119140625,-0.14536094665527344,0.08076763153076172,0.004440724849700928
1712257468198970000,6.18397021484375,-0.06534004211425781,0.08301496505737305,-0.052211880683898926
1712257468208968700,6.19396875,-0.033313751220703125,0.07098197937011719,-0.05282825231552124
1712257468218967600,6.203967529296875,-0.01813793182373047,0.046900033950805664,-0.028083384037017822
1712257468228966400,6.21396630859375,0.06390380859375,0.027959346771240234,-0.009868443012237549
1712257468238965000,6.223965087890625,0.06677055358886719,0.03342032432556152,-0.02271866798400879
1712257468248963800,6.2339638671875,0.0026521682739257812,0.033812761306762695,0.02001553773880005
1712257468258962700,6.243962646484375,0.017640113830566406,0.0172879695892334,0.019175350666046143
1712257468268961300,6.253961181640625,0.04695701599121094,0.0322113037109375,0.01022559404373169
1712257468278960000,6.263960205078125,0.030721664428710938,-0.0028257369995117188,-0.0017071962356567383
1712257468288958700,6.273958740234375,-0.062224388122558594,-0.030356884002685547,0.002896547317504883
1712257468298957600,6.28395751953125,0.06263160705566406,0.014349699020385742,0.04023611545562744
1712257468308956200,6.2939560546875,0.06267833709716797,0.07928109169006348,0.06238853931427002
1712257468318955000,6.303955078125,0.036515235900878906,0.00957179069519043,-0.03434079885482788
1712257468328953600,6.31395361328125,-0.003935813903808594,-0.017469167709350586,-0.04640465974807739
1712257468338952400,6.323952392578125,-0.04422473907470703,-0.00189208984375,0.023014485836029053
1712257468348951000,6.333950927734375,-0.115478515625,0.020448923110961914,0.051546454429626465
1712257468358950000,6.343949951171875,-0.11699676513671875,0.018041133880615234,0.015192627906799316
1712257468368948700,6.35394873046875,-0.08501625061035156,-0.03220534324645996,-0.05941134691238403
1712257468378947300,6.363947265625,-0.03676414489746094,-0.05974912643432617,-0.10903745889663696
1712257468388946200,6.3739462890625,-0.046428680419921875,-0.047910213470458984,-0.07150822877883911
1712257468398944800,6.38394482421875,-0.08014965057373047,-0.042864322662353516,0.0016894936561584473
1712257468408943600,6.393943603515625,-0.09245586395263672,-0.0061304569244384766,0.1028476357460022
1712257468418942200,6.403942138671875,-0.09266185760498047,0.00441288948059082,0.08927136659622192
1712257468428941000,6.413941162109375,-0.001880645751953125,-0.04959511756896973,-0.0109480619430542
1712257468438940000,6.42393994140625,0.08850669860839844,-0.08119606971740723,-0.06691819429397583
1712257468448938500,6.4339384765625,0.11631107330322266,-0.10970497131347656,-0.021236062049865723
1712257468458937300,6.443937255859375,0.024274826049804688,-0.046782732009887695,0.02170640230178833
1712257468468936200,6.453936279296875,-0.02435302734375,-0.010993003845214844,0.047478318214416504
1712257468478934800,6.463934814453125,-0.0247802734375,0.004930973052978516,0.014979124069213867
1712257468488933600,6.47393359375,-0.03475379943847656,0.013502359390258789,0.006743311882019043
1712257468498932500,6.483932373046875,-0.011256217956542969,0.010273218154907227,-0.0015935301780700684
1712257468508931000,6.49393115234375,0.0075397491455078125,0.023505210876464844,0.0381617546081543
1712257468518930000,6.503929931640625,0.004974365234375,0.03617548942565918,0.03249579668045044
1712257468528928500,6.513928466796875,-0.04279899597167969,0.016850948333740234,0.012730062007904053
1712257468538927400,6.52392724609375,-0.056682586669921875,0.06571149826049805,-0.02787250280380249
1712257468548926200,6.53392626953125,-0.09647274017333984,0.043699026107788086,-0.012536942958831787
1712257468558924800,6.5439248046875,-0.08829689025878906,0.02859663963317871,-0.016184687614440918
1712257468568923600,6.553923583984375,0.01790142059326172,-0.019642353057861328,0.13353514671325684
1712257468578922500,6.563922607421875,0.04730415344238281,-0.03324270248413086,0.11313134431838989
1712257468588921000,6.573921142578125,0.033667564392089844,-0.015590429306030273,-0.013861000537872314
1712257468598920000,6.583919921875,-0.05210113525390625,0.01892256736755371,-0.09930223226547241
1712257468608918800,6.593918701171875,-0.08501911163330078,0.014128923416137695,-0.0988510251045227
1712257468618917400,6.60391748046875,-0.08925151824951172,0.002222776412963867,-0.04786789417266846
1712257468628916200,6.613916259765625,-0.06255531311035156,0.0053675174713134766,-0.021307945251464844
1712257468638915000,6.6239150390625,0.03563404083251953,-0.0189516544342041,-0.027192413806915283
1712257468648914000,6.633913818359375,0.09773445129394531,-0.008869171142578125,0.027568697929382324
1712257468658913000,6.6439130859375,0.040187835693359375,0.015438556671142578,-0.01606583595275879
1712257468668911900,6.653911865234375,0.00211334228515625,0.03885507583618164,-0.03582417964935303
1712257468678911000,6.663910888671875,-0.030844688415527344,0.02047252655029297,-0.014214634895324707
1712257468688909800,6.673909912109375,-0.027825355529785156,-0.007733583450317383,-0.004289507865905762
1712257468698909000,6.683908935546875,-0.013147354125976562,-0.03017902374267578,-0.004265308380126953
1712257468708908000,6.693907958984375,0.0106201171875,-0.025002002716064453,-0.0013968944549560547
1712257468718907000,6.703906982421875,-0.03298664093017578,-0.021317243576049805,0.0017107725143432617
1712257468728906000,6.713906005859375,-0.06921768188476562,0.005823850631713867,-0.021783173084259033
1712257468738905000,6.723905029296875,-0.09076499938964844,0.003298044204711914,-0.028436362743377686
1712257468748904200,6.733904296875,-0.09057426452636719,0.00012445449829101562,-0.03462326526641846
1712257468758903300,6.7439033203125,-0.09505176544189453,-0.04881405830383301,-0.031518399715423584
1712257468768902400,6.75390234375,-0.08541393280029297,-0.015479326248168945,0.002056598663330078
1712257468778901200,6.7639013671875,-0.1141977310180664,-0.0031113624572753906,0.005796551704406738
1712257468788900400,6.773900390625,-0.08316802978515625,-0.026367664337158203,0.0016234517097473145
1712257468798899500,6.7838994140625,-0.02357769012451172,-0.02014923095703125,-0.0083770751953125
1712257468808898600,6.793898681640625,0.00232696533203125,-0.006212472915649414,0.03401756286621094
1712257468818897400,6.8038974609375,0.01629352569580078,0.005351066589355469,0.06157577037811279
1712257468828896500,6.813896484375,0.011071205139160156,-0.02372121810913086,0.03185296058654785
1712257468838895600,6.8238955078125,0.039267539978027344,-0.043251752853393555,-0.00609135627746582
1712257468848894700,6.833894775390625,0.052893638610839844,-0.029064178466796875,-0.032810330390930176
1712257468858893800,6.843893798828125,0.04733848571777344,-0.04379630088806152,-0.010525047779083252
1712257468868893000,6.853892822265625,0.015255928039550781,-0.026890277862548828,-0.007274806499481201
1712257468878891800,6.863891845703125,0.06448173522949219,0.004735469818115234,0.007670581340789795
1712257468888891000,6.873890869140625,0.1017007827758789,-0.018337011337280273,0.002348184585571289
1712257468898890000,6.883889892578125,0.06952381134033203,-0.007938146591186523,0.006373226642608643
1712257468908889000,6.89388916015625,0.037613868713378906,-0.00078582763671875,0.010736823081970215
1712257468918888000,6.903887939453125,0.0011663436889648438,0.029427289962768555,0.039721786975860596
1712257468928887000,6.913886962890625,-0.037421226501464844,0.022954940795898438,0.01378411054611206
1712257468938886000,6.923885986328125,-0.013774871826171875,-0.01456594467163086,-0.00987619161605835
1712257468948884700,6.933884765625,-0.0070476531982421875,-0.010896444320678711,-0.03124934434890747
1712257468958883800,6.9438837890625,-0.005015373229980469,-0.007386922836303711,-0.00040721893310546875
1712257468968882400,6.95388232421875,-0.021917343139648438,0.007533550262451172,0.008582472801208496
1712257468978881300,6.96388134765625,-0.024255752563476562,0.043529510498046875,0.02193009853363037
1712257468988880100,6.973880126953125,-0.05232715606689453,0.03728890419006348,-0.011074602603912354
1712257468998879000,6.98387890625,-0.013135910034179688,0.0016338825225830078,-0.015195310115814209
1712257469008877600,6.993877685546875,-0.010046958923339844,-0.016781330108642578,0.0073122382164001465
1712257469018876400,7.00387646484375,0.0000019073486328125,-0.029825925827026367,-0.005850017070770264
1712257469028875000,7.013875,0.00257110595703125,-0.039641618728637695,-0.018903791904449463
1712257469038873900,7.023873779296875,-0.009561538696289062,-0.0294644832611084,0.02124309539794922
1712257469048872400,7.03387255859375,0.042899131774902344,-0.0717012882232666,0.013057947158813477
1712257469058871300,7.043871337890625,0.04707622528076172,-0.0625004768371582,0.002451658248901367
1712257469068870000,7.053869873046875,-0.07091140747070312,-0.012485027313232422,0.023188412189483643
1712257469078868700,7.06386865234375,-0.10943412780761719,0.014833450317382812,0.028899848461151123
1712257469088867300,7.073867431640625,-0.013590812683105469,-0.0014424324035644531,0.04762887954711914
1712257469098866200,7.0838662109375,0.015193939208984375,-0.04609274864196777,0.03882014751434326
1712257469108864800,7.09386474609375,-0.0137786865234375,-0.05417013168334961,0.030809879302978516
1712257469118863600,7.103863525390625,-0.045337677001953125,-0.023538827896118164,0.011473417282104492
1712257469128862500,7.113862548828125,-0.07431221008300781,-0.0223691463470459,-0.009532511234283447
1712257469138861000,7.123861083984375,-0.09600257873535156,-0.03369545936584473,-0.02962559461593628
1712257469148860000,7.13385986328125,-0.06501007080078125,-0.05491900444030762,-0.03416377305984497
1712257469158858800,7.143858642578125,-0.04388618469238281,-0.04905843734741211,-0.016780555248260498
1712257469168857300,7.153857421875,-0.02523326873779297,-0.011780261993408203,-0.023599565029144287
1712257469178856200,7.163856201171875,0.022162437438964844,-0.0007932186126708984,-0.011575758457183838
1712257469188854800,7.173854736328125,0.0624542236328125,0.0435786247253418,0.00006628036499023438
1712257469198853600,7.183853515625,0.02408313751220703,0.0655059814453125,0.013655424118041992
1712257469208852200,7.193852294921875,-0.02591991424560547,0.07442951202392578,0.05855053663253784
1712257469218851000,7.20385107421875,-0.05399894714355469,0.04647350311279297,0.035903990268707275
1712257469228850000,7.213849853515625,0.006571769714355469,0.023138046264648438,-0.015507221221923828
1712257469238848800,7.223848876953125,0.019016265869140625,0.08176183700561523,0.0030948519706726074
1712257469248847400,7.233847412109375,0.03399658203125,0.039313554763793945,0.02929908037185669
1712257469258846200,7.24384619140625,0.0369720458984375,0.01863694190979004,0.03823375701904297
1712257469268845000,7.253844970703125,0.02073383331298828,-0.004132509231567383,0.010730087757110596
1712257469278843600,7.26384375,0.05951881408691406,0.009180545806884766,-0.016881048679351807
1712257469288842500,7.273842529296875,0.0025787353515625,0.017544269561767578,0.008266270160675049
1712257469298841000,7.283841064453125,-0.02794170379638672,0.042438507080078125,0.01424860954284668
1712257469308840000,7.29383984375,-0.041680335998535156,0.036156654357910156,0.01777935028076172
1712257469318838500,7.303838623046875,-0.012407302856445312,0.0038518905639648438,-0.005299746990203857
1712257469328837400,7.31383740234375,-0.009791374206542969,-0.006235837936401367,-0.02016913890838623
1712257469338836200,7.323836181640625,0.0022525787353515625,-0.037763118743896484,-0.00026476383209228516
1712257469348834800,7.333834716796875,-0.05296897888183594,-0.08070874214172363,0.017636597156524658
1712257469358833700,7.343833740234375,-0.11536312103271484,-0.08296513557434082,-0.002818763256072998
1712257469368832500,7.35383251953125,-0.1229248046875,-0.05101180076599121,-0.023313164710998535
1712257469378831400,7.363831298828125,-0.08757209777832031,-0.018345117568969727,-0.0038388967514038086
1712257469388830000,7.373829833984375,-0.061760902404785156,-0.016701936721801758,0.002862393856048584
1712257469398828800,7.383828857421875,0.014501571655273438,-0.04657101631164551,0.00194549560546875
1712257469408827400,7.393827392578125,0.0667581558227539,-0.05694699287414551,-0.013943195343017578
1712257469418826000,7.403825927734375,0.08060646057128906,-0.07910728454589844,-0.03182762861251831
1712257469428824800,7.413824951171875,0.09417724609375,-0.07677030563354492,-0.029573798179626465
1712257469438823700,7.42382373046875,0.09795379638671875,-0.06190037727355957,-0.03421515226364136
1712257469448822300,7.433822265625,0.07759666442871094,-0.03698277473449707,-0.0025980472564697266
1712257469458820900,7.44382080078125,0.04773712158203125,-0.005171537399291992,0.010150432586669922
1712257469468819700,7.45381982421875,0.01346588134765625,0.025611162185668945,0.02266615629196167
1712257469478818600,7.463818603515625,-0.0919961929321289,0.016396045684814453,0.024940073490142822
1712257469488817200,7.473817138671875,-0.11559677124023438,0.02274155616760254,0.0051724910736083984
1712257469498816000,7.48381591796875,-0.14623546600341797,-0.002345561981201172,-0.029429316520690918
1712257469508814600,7.493814697265625,-0.12673282623291016,-0.010268449783325195,-0.04007554054260254
1712257469518813400,7.5038134765625,-0.09301567077636719,0.015650510787963867,-0.01195061206817627
1712257469528812000,7.51381201171875,-0.100128173828125,0.03466176986694336,0.018937230110168457
1712257469538811000,7.523810791015625,-0.07378292083740234,0.020148038864135742,-0.028476238250732422
1712257469548809700,7.533809814453125,0.00045299530029296875,0.04840564727783203,-0.029155611991882324
1712257469558808300,7.543808349609375,-0.004116058349609375,0.0209503173828125,-0.0009360909461975098
1712257469568807200,7.55380712890625,-0.0468292236328125,0.01457667350769043,0.008099019527435303
1712257469578805800,7.5638056640625,-0.06787776947021484,0.005468845367431641,0.033907532691955566
1712257469588804600,7.5738046875,0.016425132751464844,0.018164396286010742,0.00839841365814209
1712257469598803500,7.583803466796875,0.06236553192138672,0.012355566024780273,0.01207822561264038
1712257469608802000,7.593802001953125,0.050629615783691406,-0.030905485153198242,0.014806389808654785
1712257469618801000,7.60380078125,0.09843921661376953,0.0032825469970703125,0.04655486345291138
1712257469628799700,7.6137998046875,0.09827423095703125,0.013834953308105469,0.039831459522247314
1712257469638798300,7.62379833984375,0.05752372741699219,0.03344249725341797,0.01943761110305786
1712257469648797200,7.633797119140625,0.016931533813476562,0.009199142456054688,0.007392823696136475
1712257469658796000,7.643796142578125,-0.057152748107910156,-0.008096694946289062,0.0246809720993042
1712257469668794600,7.653794677734375,-0.052338600158691406,-0.01296377182006836,0.027081847190856934
1712257469678793500,7.66379345703125,-0.05239105224609375,-0.05569100379943848,0.014260292053222656
1712257469688792000,7.6737919921875,-0.035854339599609375,-0.016454696655273438,0.013164341449737549
1712257469698791000,7.683791015625,-0.043033599853515625,-0.030441999435424805,0.014038920402526855
1712257469708789500,7.69378955078125,-0.08352947235107422,-0.021040678024291992,0.005210995674133301
1712257469718788400,7.703788330078125,-0.07843780517578125,-0.014268159866333008,-0.006176888942718506
1712257469728787200,7.713787109375,-0.02785491943359375,0.006789684295654297,-0.0052980780601501465
1712257469738786000,7.7237861328125,-0.018133163452148438,-0.0005075931549072266,-0.03280550241470337
1712257469748785000,7.733784912109375,0.022535324096679688,-0.04089760780334473,-0.0384334921836853
1712257469758783700,7.74378369140625,0.03890419006347656,-0.037412166595458984,-0.01670593023300171
1712257469768782800,7.753782958984375,0.057450294494628906,0.0025641918182373047,0.024377524852752686
1712257469778781700,7.76378173828125,0.04266834259033203,-0.003396749496459961,0.03868478536605835
1712257469788780500,7.773780517578125,0.00885009765625,0.000023365020751953125,0.0141221284866333
1712257469798779400,7.783779296875,0.0038890838623046875,0.0031397342681884766,0.03003746271133423
1712257469808778200,7.7937783203125,0.023041725158691406,-0.015622854232788086,0.0405239462852478
1712257469818777000,7.803777099609375,0.02064228057861328,-0.026992082595825195,0.02388739585876465
1712257469828776000,7.81377587890625,0.01331329345703125,-0.08830904960632324,-0.054692983627319336
1712257469838774800,7.82377490234375,-0.013544082641601562,-0.14409923553466797,-0.06007426977157593
1712257469848773600,7.833773681640625,-0.05048084259033203,-0.1508944034576416,-0.08326804637908936
1712257469858772500,7.8437724609375,-0.056725502014160156,-0.09466338157653809,-0.08541977405548096
1712257469868771300,7.853771240234375,-0.07512474060058594,0.00480198860168457,-0.07166969776153564
1712257469878770200,7.863770263671875,-0.07637500762939453,0.11757612228393555,-0.10605651140213013
1712257469888769000,7.87376904296875,-0.07914352416992188,0.18982148170471191,-0.08189171552658081
1712257469898768000,7.883767822265625,-0.08326530456542969,0.24048447608947754,0.009340524673461914
1712257469908766700,7.8937666015625,-0.1126251220703125,0.2454545497894287,0.09579706192016602
1712257469918765600,7.903765625,-0.08831024169921875,0.2074437141418457,0.155900776386261
1712257469928764400,7.913764404296875,-0.11836433410644531,0.16547179222106934,0.1616491675376892
1712257469938763300,7.92376318359375,-0.11214828491210938,0.10332417488098145,0.1339801549911499
1712257469948762000,7.93376220703125,-0.12764835357666016,0.039066314697265625,0.07133710384368896
1712257469958761000,7.943760986328125,-0.08861351013183594,-0.038295745849609375,0.014648139476776123
1712257469968759800,7.953759765625,-0.021941184997558594,-0.09121131896972656,0.014052629470825195
1712257469978758700,7.963758544921875,0.10802745819091797,-0.15010929107666016,-0.062100350856781006
1712257469988757500,7.973757568359375,0.20529937744140625,-0.18115997314453125,-0.09526562690734863
1712257469998756400,7.98375634765625,0.2295551300048828,-0.1611340045928955,-0.07491254806518555
1712257470008755500,7.99375537109375,0.2003917694091797,-0.1345055103302002,-0.03409165143966675
