time,seconds_elapsed,z,y,x
1715439447294154000,0.129154052734375,-0.11757183074951172,0.4401516914367676,-0.8431059122085571
1715439447304184600,0.1391845703125,-0.08888053894042969,0.560847282409668,-0.732046365737915
1715439447314231600,0.1492314453125,0.004725456237792969,0.8101527690887451,-1.0883347988128662
1715439447324293000,0.159293212890625,-0.0035352706909179688,0.2621903419494629,-0.6597001552581787
1715439447334365700,0.16936572265625,-0.5790367126464844,0.5661234855651855,-0.795453667640686
1715439447344447000,0.179447021484375,-0.4800596237182617,0.9487347602844238,-1.5837846994400024
1715439447354533000,0.189533203125,-0.4206705093383789,0.68080735206604,-1.0726714134216309
1715439447364620800,0.199620849609375,-0.3490476608276367,0.5787110328674316,-0.8233555555343628
1715439447374666200,0.209666259765625,-0.27459239959716797,0.3928694725036621,-0.5923711657524109
1715439447384672300,0.21967236328125,-0.3837013244628906,0.10088276863098145,-0.22279517352581024
1715439447394678500,0.229678466796875,-0.47748565673828125,-0.11004447937011719,-0.09033380448818207
1715439447404684500,0.2396845703125,-0.39746856689453125,-0.19003582000732422,0.07943932712078094
1715439447414690600,0.249690673828125,-0.38889503479003906,-0.2454824447631836,0.1399746686220169
1715439447424696800,0.25969677734375,-0.3292837142944336,-0.2137606143951416,0.15307050943374634
1715439447434702800,0.269702880859375,-0.1834430694580078,-0.1723930835723877,0.05301175266504288
1715439447444708900,0.279708984375,-0.0772542953491211,-0.1336655616760254,-0.052866339683532715
1715439447454715000,0.28971484375,0.1176137924194336,0.1686687469482422,-0.4516336917877197
1715439447464721200,0.29972119140625,0.26722240447998047,0.2807002067565918,-0.7042141556739807
1715439447474727200,0.30972705078125,0.05815410614013672,-0.03174591064453125,-0.404226690530777
1715439447484733200,0.319733154296875,0.1995220184326172,-0.1562023162841797,0.12887118756771088
1715439447494739500,0.329739501953125,0.2544975280761719,-0.11385297775268555,0.453902006149292
1715439447504745500,0.339745361328125,0.2632007598876953,-0.2856485843658447,0.5573850274085999
1715439447514751500,0.34975146484375,0.022495269775390625,-0.1212160587310791,0.15838615596294403
1715439447524757800,0.3597578125,-0.4101543426513672,0.13463306427001953,-0.392219603061676
1715439447534763800,0.369763671875,-0.636077880859375,0.283172607421875,-0.4874420762062073
1715439447544769800,0.379769775390625,-0.6110296249389648,0.2922365665435791,-0.3376506567001343
1715439447554775800,0.38977587890625,-0.5097255706787109,0.24539589881896973,-0.2620619833469391
1715439447564782000,0.399781982421875,-0.4364786148071289,0.22772574424743652,-0.29215142130851746
1715439447574788000,0.4097880859375,-0.39971160888671875,0.21500420570373535,-0.31807488203048706
1715439447584794000,0.419794189453125,-0.3791847229003906,0.1868727207183838,-0.3289792537689209
1715439447594800400,0.42980029296875,-0.22426795959472656,0.1649012565612793,-0.2613738477230072
1715439447604806400,0.439806396484375,-0.08677959442138672,0.10952162742614746,-0.22441957890987396
1715439447614812400,0.4498125,-0.03597068786621094,0.16092681884765625,-0.3123428523540497
1715439447624818700,0.459818603515625,0.06614971160888672,0.13819384574890137,-0.33156993985176086
1715439447634824700,0.46982470703125,-0.03896522521972656,0.11346220970153809,-0.3650399446487427
1715439447644830700,0.479830810546875,-0.024007797241210938,0.18574094772338867,-0.3651793897151947
1715439447654836700,0.489836669921875,-0.004321098327636719,0.20395612716674805,-0.33451831340789795
1715439447664843000,0.499843017578125,-0.06496429443359375,0.19434094429016113,-0.3508415222167969
1715439447674849000,0.50984912109375,-0.12508106231689453,0.15870881080627441,-0.33966341614723206
1715439447684855000,0.51985498046875,-0.05323219299316406,0.05025935173034668,-0.16350844502449036
1715439447694861300,0.529861328125,0.06399059295654297,-0.03694343566894531,0.02169506438076496
1715439447704867300,0.539867431640625,0.13689422607421875,-0.06660294532775879,0.10419312864542007
1715439447714873600,0.54987353515625,0.17614459991455078,0.07189083099365234,0.03918953984975815
1715439447724879600,0.559879638671875,0.1873149871826172,0.2527344226837158,-0.06707010418176651
1715439447734886000,0.569885986328125,0.3874349594116211,0.30051231384277344,-0.23137705028057098
1715439447744892000,0.579891845703125,0.35509681701660156,0.17450189590454102,-0.4386496841907501
1715439447754898200,0.589898193359375,0.5320625305175781,0.1357102394104004,-0.3667953610420227
1715439447764904200,0.599904296875,0.5243740081787109,0.05545949935913086,-0.5197440385818481
1715439447774910500,0.609910400390625,0.39142417907714844,0.07628154754638672,-0.7410343885421753
1715439447784916500,0.61991650390625,0.4031991958618164,0.2870020866394043,-0.6274001598358154
1715439447794922800,0.6299228515625,0.0011472702026367188,0.20103931427001953,-0.26199692487716675
1715439447804928800,0.6399287109375,-0.3857545852661133,0.11925435066223145,0.10490375012159348
1715439447814935000,0.64993505859375,-0.4906473159790039,-0.10102438926696777,0.28103312849998474
1715439447824941000,0.659941162109375,-0.2151813507080078,-0.013356685638427734,0.07144886255264282
1715439447834947300,0.669947265625,-0.12984180450439453,0.29468774795532227,-0.3023071587085724
1715439447844953600,0.67995361328125,-0.5416908264160156,0.4126315116882324,-0.4527120292186737
1715439447854959600,0.689959716796875,-0.9438371658325195,0.28809022903442383,-0.2339167296886444
1715439447864966000,0.6999658203125,-0.7333469390869141,0.15015769004821777,-0.04475700855255127
1715439447874972000,0.709971923828125,-0.7958841323852539,-0.006594419479370117,0.26192402839660645
1715439447884978200,0.719978271484375,-0.8117551803588867,-0.030145883560180664,0.2859514057636261
1715439447894984200,0.729984130859375,-0.5605707168579102,-0.06337141990661621,0.12759128212928772
1715439447904990500,0.739990478515625,-0.2533149719238281,0.04315757751464844,0.10715541243553162
1715439447914996500,0.74999658203125,0.020572662353515625,0.01634693145751953,0.03271856904029846
1715439447925002800,0.760002685546875,0.11171531677246094,0.0731058120727539,-0.05271431803703308
1715439447935008800,0.7700087890625,-0.023756027221679688,0.22540807723999023,-0.149466410279274
1715439447945015000,0.78001513671875,-0.1185302734375,0.22703146934509277,-0.28344735503196716
1715439447955021000,0.79002099609375,-0.11691474914550781,0.11853146553039551,-0.17676573991775513
1715439447965027300,0.80002734375,-0.08642864227294922,0.01471400260925293,-0.026033535599708557
1715439447975033300,0.810033447265625,0.033695220947265625,-0.07979369163513184,0.03460852801799774
1715439447985039600,0.82003955078125,0.0347900390625,-0.08510231971740723,0.08184494078159332
1715439447995045600,0.830045654296875,0.036385536193847656,-0.06343221664428711,0.03999292850494385
1715439448005052000,0.840052001953125,0.09964466094970703,-0.07153511047363281,-0.058710984885692596
1715439448015058000,0.850057861328125,0.11983966827392578,-0.000324249267578125,-0.04887990280985832
1715439448025064200,0.860064208984375,0.09258460998535156,0.0793159008026123,-0.12139037251472473
1715439448035070200,0.8700703125,0.02776813507080078,0.12574982643127441,-0.30497679114341736
1715439448045076500,0.880076416015625,0.03873634338378906,0.15914416313171387,-0.31101834774017334
1715439448055082500,0.89008251953125,0.23247623443603516,0.1750946044921875,-0.15140148997306824
1715439448065088800,0.9000888671875,0.4324378967285156,0.12486600875854492,-0.12025260180234909
1715439448075094800,0.9100947265625,0.4978904724121094,0.11611747741699219,-0.15756800770759583
1715439448085101000,0.92010107421875,0.4835042953491211,0.1275787353515625,-0.1870267689228058
1715439448095107000,0.930107177734375,0.28703975677490234,0.1446843147277832,-0.14564621448516846
1715439448105113300,0.94011328125,0.023893356323242188,0.12670159339904785,-0.09502201527357101
1715439448115119400,0.950119384765625,-0.14072513580322266,0.09027934074401855,-0.06867080926895142
1715439448125125600,0.960125732421875,-0.24645614624023438,0.09310293197631836,-0.018163315951824188
1715439448135131600,0.970131591796875,-0.33220672607421875,0.05514836311340332,0.03301538527011871
1715439448145138000,0.980137939453125,-0.32344722747802734,0.025528430938720703,0.0784534364938736
1715439448155144000,0.99014404296875,-0.2550230026245117,0.08511543273925781,0.007364585995674133
1715439448165150200,1.000150146484375,-0.19817543029785156,0.16545629501342773,-0.11140493303537369
1715439448175156200,1.01015625,-0.12403202056884766,0.1896224021911621,-0.11015313863754272
1715439448185162500,1.02016259765625,-0.08437252044677734,0.14825177192687988,-0.022526085376739502
1715439448195168500,1.03016845703125,-0.0406036376953125,0.05086517333984375,0.03745235502719879
1715439448205174800,1.0401748046875,-0.020575523376464844,0.06653642654418945,0.024302169680595398
1715439448215180800,1.050180908203125,0.02800273895263672,0.12237119674682617,-0.031161576509475708
1715439448225187000,1.06018701171875,0.04350852966308594,0.17514777183532715,-0.12864860892295837
1715439448235193000,1.070193115234375,-0.06311893463134766,0.19706940650939941,-0.20104148983955383
1715439448245199400,1.080199462890625,-0.11120986938476562,0.13310837745666504,-0.11453583091497421
1715439448255205400,1.090205322265625,-0.13976573944091797,0.051770925521850586,-0.05435408651828766
1715439448265211600,1.100211669921875,-0.20125579833984375,0.006102323532104492,0.031952157616615295
1715439448275217700,1.1102177734375,-0.2058868408203125,-0.0038123130798339844,0.00984155386686325
1715439448285224000,1.120223876953125,-0.09812641143798828,0.0356602668762207,-0.007142849266529083
1715439448295230000,1.13022998046875,0.026413917541503906,0.0753481388092041,-0.050520043820142746
1715439448305236200,1.140236328125,0.08315563201904297,0.1280217170715332,-0.16052407026290894
1715439448315242200,1.1502421875,0.15367507934570312,0.14992642402648926,-0.21308207511901855
1715439448325248500,1.16024853515625,0.2708282470703125,0.17414188385009766,-0.1474820375442505
1715439448335254500,1.170254638671875,0.2315044403076172,0.19071698188781738,-0.11804597079753876
1715439448345260800,1.1802607421875,0.09934329986572266,0.14847421646118164,-0.12391841411590576
1715439448355266800,1.190266845703125,0.0026388168334960938,0.058974504470825195,-0.010648958384990692
1715439448365273000,1.200273193359375,-0.07369613647460938,-0.019429922103881836,0.1113646849989891
1715439448375279000,1.210279052734375,-0.08321571350097656,-0.02954554557800293,0.11481893807649612
1715439448385285400,1.220285400390625,-0.07883262634277344,-0.000759124755859375,0.011883407831192017
1715439448395291400,1.23029150390625,-0.027787208557128906,0.047356605529785156,-0.08169793337583542
1715439448405297700,1.240297607421875,0.05994701385498047,0.07622790336608887,-0.158066064119339
1715439448415303700,1.2503037109375,0.17450523376464844,0.08578705787658691,-0.2925657331943512
1715439448425310000,1.26031005859375,0.19331645965576172,0.1366872787475586,-0.3306031823158264
1715439448435316000,1.27031591796875,0.15126323699951172,0.11896276473999023,-0.23173756897449493
1715439448445322200,1.280322265625,0.17641639709472656,0.11870670318603516,-0.13424549996852875
1715439448455328300,1.290328369140625,0.004034996032714844,-0.015243291854858398,0.0026305243372917175
1715439448465334500,1.30033447265625,-0.1133718490600586,-0.006584644317626953,0.1373659074306488
1715439448475340500,1.310340576171875,0.06823348999023438,0.1231851577758789,-0.08430299907922745
1715439448485346800,1.320346923828125,0.2004995346069336,0.1590878963470459,-0.13661155104637146
1715439448495352800,1.330352783203125,0.12886714935302734,0.15918827056884766,-0.07865629345178604
1715439448505359000,1.340359130859375,0.030651092529296875,0.10612869262695312,-0.07707373052835464
1715439448515365000,1.350365234375,0.004944801330566406,0.05327415466308594,-0.042044516652822495
1715439448525371400,1.360371337890625,0.045731544494628906,0.07153820991516113,-0.002462036907672882
1715439448535377700,1.370377685546875,0.18478679656982422,0.06575608253479004,0.11840718984603882
1715439448545383700,1.3803837890625,0.1897754669189453,0.0785970687866211,0.11838880181312561
1715439448555390000,1.390389892578125,0.10097026824951172,0.08985328674316406,-0.06998839229345322
1715439448565396000,1.40039599609375,0.13653278350830078,-0.04160356521606445,-0.00931517407298088
1715439448575402200,1.41040234375,0.1577892303466797,-0.0683598518371582,0.05887124314904213
1715439448585408300,1.420408203125,0.19800472259521484,-0.06298422813415527,0.09776349365711212
1715439448595414500,1.43041455078125,0.29949092864990234,-0.02198314666748047,-0.00986822322010994
1715439448605420500,1.440420654296875,0.26358699798583984,0.0349268913269043,-0.14074750244617462
1715439448615426800,1.4504267578125,0.08272075653076172,0.06638002395629883,-0.22480660676956177
1715439448625432800,1.460432861328125,-0.12365055084228516,0.051116228103637695,-0.20701056718826294
1715439448635439000,1.470439208984375,-0.2615823745727539,0.005797147750854492,-0.13693955540657043
1715439448645445000,1.480445068359375,-0.29474353790283203,-0.02150869369506836,-0.056662168353796005
1715439448655451400,1.490451416015625,-0.24814605712890625,-0.01305246353149414,-0.016922079026699066
1715439448665457400,1.50045751953125,-0.217010498046875,0.015660524368286133,0.026952799409627914
1715439448675463700,1.510463623046875,-0.18192386627197266,0.02574610710144043,0.008937399834394455
1715439448685469700,1.5204697265625,-0.2039794921875,0.04528021812438965,0.00974583625793457
1715439448695476000,1.53047607421875,-0.24940872192382812,0.05565929412841797,0.024029619991779327
1715439448705482000,1.54048193359375,-0.2850828170776367,0.09528732299804688,-0.009368255734443665
1715439448715488300,1.55048828125,-0.35388851165771484,0.08921027183532715,-0.013190440833568573
1715439448725494300,1.560494384765625,-0.36607933044433594,0.05299019813537598,0.003425486385822296
1715439448735500500,1.57050048828125,-0.2611055374145508,0.009890317916870117,0.017223365604877472
1715439448745506600,1.580506591796875,-0.11596488952636719,0.025167465209960938,-0.01872892677783966
1715439448755512800,1.590512939453125,-0.006339073181152344,0.045189619064331055,-0.04718806967139244
1715439448765518800,1.600518798828125,0.05917072296142578,0.05517077445983887,-0.030766919255256653
1715439448775525000,1.610525146484375,0.05790901184082031,0.04547262191772461,-0.0413481630384922
1715439448785531100,1.62053125,0.03809165954589844,0.035259246826171875,-0.07529567182064056
1715439448795537400,1.630537353515625,0.042382240295410156,0.03876233100891113,-0.05813887342810631
1715439448805543400,1.64054345703125,0.013841629028320312,0.07467770576477051,-0.038078442215919495
1715439448815549700,1.6505498046875,-0.03774833679199219,0.06290578842163086,-0.0669708400964737
1715439448825555700,1.6605556640625,-0.07436943054199219,0.0325925350189209,-0.06906233727931976
1715439448835562000,1.67056201171875,-0.08215713500976562,0.012293100357055664,0.0036303475499153137
1715439448845568000,1.680568115234375,-0.1323070526123047,-0.002675771713256836,0.02882668375968933
1715439448855574300,1.69057421875,-0.16294097900390625,0.020652294158935547,-0.04895491153001785
1715439448865580300,1.700580322265625,-0.127227783203125,0.05791163444519043,-0.1198987066745758
1715439448875586600,1.710586669921875,-0.04981803894042969,0.09945893287658691,-0.12764401733875275
1715439448885592600,1.720592529296875,-0.034913063049316406,0.09323763847351074,-0.1448158323764801
1715439448895598800,1.730598876953125,-0.06748008728027344,0.05455303192138672,-0.10161606967449188
1715439448905604900,1.74060498046875,-0.08083915710449219,0.012287616729736328,-0.041689444333314896
1715439448915611100,1.750611083984375,-0.051743507385253906,-0.005352497100830078,0.031562864780426025
1715439448925617200,1.7606171875,-0.04197406768798828,-0.0038700103759765625,0.0008647367358207703
1715439448935623400,1.77062353515625,-0.09358501434326172,0.025838136672973633,-0.04763704910874367
1715439448945629400,1.78062939453125,-0.10207748413085938,0.04592108726501465,-0.01443895697593689
1715439448955635700,1.7906357421875,-0.025789260864257812,0.05182623863220215,-0.004634149372577667
1715439448965641700,1.800641845703125,-0.007168769836425781,0.04792189598083496,-0.03222522884607315
1715439448975648000,1.81064794921875,-0.012187004089355469,0.038794755935668945,-0.030393041670322418
1715439448985654000,1.820654052734375,-0.05921649932861328,0.04317021369934082,-0.018062546849250793
1715439448995660300,1.830660400390625,-0.0959768295288086,0.07081937789916992,-0.07584071159362793
1715439449005666300,1.840666259765625,-0.05686664581298828,0.09820294380187988,-0.12240766733884811
1715439449015672600,1.850672607421875,-0.004222869873046875,0.10610747337341309,-0.14322307705879211
1715439449025678600,1.8606787109375,0.04305458068847656,0.08505868911743164,-0.16331079602241516
1715439449035684900,1.870684814453125,0.05696582794189453,0.07281804084777832,-0.09942000359296799
1715439449045691000,1.88069091796875,-0.018697738647460938,0.08403658866882324,-0.06613554060459137
1715439449055697200,1.890697265625,-0.041588783264160156,0.10996699333190918,-0.058565281331539154
1715439449065703200,1.900703125,0.04398632049560547,0.10779452323913574,-0.028942253440618515
1715439449075709400,1.91070947265625,0.1186819076538086,0.07750606536865234,-0.046987149864435196
1715439449085715500,1.920715576171875,0.11697959899902344,0.028411149978637695,-0.0416174978017807
1715439449095721700,1.9307216796875,0.02587890625,0.0035800933837890625,0.02961994707584381
1715439449105727700,1.940727783203125,-0.031003952026367188,0.01750326156616211,0.006142947822809219
1715439449115734000,1.950734130859375,0.05883979797363281,0.07875990867614746,-0.06330205500125885
1715439449125740000,1.960739990234375,0.13320350646972656,0.11506915092468262,-0.06975404918193817
1715439449135746300,1.970746337890625,0.1549367904663086,0.07437777519226074,-0.05661757290363312
1715439449145752300,1.98075244140625,0.1674823760986328,0.04223990440368652,-0.09994272887706757
1715439449155758600,1.990758544921875,0.17103099822998047,0.060793161392211914,-0.12290950119495392
1715439449165764600,2.0007646484375,0.12320709228515625,0.07778215408325195,-0.11978325247764587
1715439449175771000,2.01077099609375,0.043598175048828125,0.05585193634033203,-0.11983790993690491
1715439449185777000,2.02077685546875,-0.05798816680908203,0.024288654327392578,-0.0999307706952095
1715439449195783200,2.030783203125,-0.16272449493408203,-0.0016531944274902344,-0.07078332453966141
1715439449205789200,2.0407890625,-0.1531085968017578,-0.030806779861450195,-0.06714819371700287
1715439449215795500,2.05079541015625,-0.07324504852294922,-0.06830930709838867,-0.09978072345256805
1715439449225801500,2.060801513671875,-0.008690834045410156,-0.05848288536071777,-0.09784527122974396
1715439449235807700,2.070807861328125,-0.053325653076171875,0.016620159149169922,-0.10019949078559875
1715439449245814000,2.08081396484375,-0.13028812408447266,0.12372016906738281,-0.2631611227989197
1715439449255820000,2.090820068359375,-0.18768787384033203,0.1363084316253662,-0.34020936489105225
1715439449265826300,2.100826416015625,-0.1788644790649414,-0.07558965682983398,-0.10993027687072754
1715439449275832300,2.110832275390625,-0.137298583984375,-0.0953211784362793,-0.01567469909787178
1715439449285838600,2.120838623046875,-0.1484842300415039,-0.0056629180908203125,0.01744723692536354
1715439449295844600,2.1308447265625,-0.19278717041015625,0.05520462989807129,-0.12806186079978943
1715439449305851000,2.140850830078125,-0.20867443084716797,0.10718202590942383,-0.17704005539417267
1715439449315857000,2.15085693359375,-0.12585926055908203,0.12649917602539062,-0.1958421766757965
1715439449325863200,2.16086328125,-0.030689239501953125,0.11351299285888672,-0.09430164098739624
1715439449335869200,2.170869140625,0.034461021423339844,0.0634775161743164,0.013448581099510193
1715439449345875500,2.18087548828125,0.07490825653076172,0.028504133224487305,0.04729124903678894
1715439449355881500,2.190881591796875,0.1053915023803711,0.02669525146484375,-0.039778970181941986
1715439449365887700,2.2008876953125,0.11200141906738281,0.062119245529174805,-0.04013924300670624
1715439449375893800,2.210893798828125,0.061992645263671875,0.11578202247619629,0.016678422689437866
1715439449385900000,2.220900146484375,-0.01088714599609375,0.13596773147583008,-0.04417075961828232
1715439449395906000,2.230906005859375,-0.035747528076171875,0.11882305145263672,-0.08882222324609756
1715439449405912300,2.240912353515625,0.005562782287597656,0.07410287857055664,-0.04251310974359512
1715439449415918300,2.25091845703125,0.05093955993652344,0.048766136169433594,0.061372533440589905
1715439449425924600,2.260924560546875,0.07228946685791016,0.07015395164489746,0.08545586466789246
1715439449435930600,2.2709306640625,0.04173088073730469,0.09520888328552246,0.03531558811664581
1715439449445937000,2.28093701171875,-0.016458511352539062,0.1195523738861084,0.014568716287612915
1715439449455943000,2.29094287109375,-0.05008125305175781,0.09630465507507324,0.012211218476295471
1715439449465949200,2.30094921875,-0.03592491149902344,0.11082077026367188,0.013521850109100342
1715439449475955200,2.310955078125,-0.012383460998535156,0.1104888916015625,0.004393339157104492
1715439449485961500,2.32096142578125,-0.00783538818359375,0.11900901794433594,-0.019340485334396362
1715439449495967500,2.330967529296875,0.07224464416503906,0.07021355628967285,-0.06197359412908554
1715439449505973800,2.340973876953125,0.14208602905273438,0.04913830757141113,-0.04198974370956421
1715439449515979800,2.350979736328125,0.20676326751708984,0.05001187324523926,0.05143721401691437
1715439449525986000,2.360986083984375,0.19102096557617188,0.03950357437133789,0.024819999933242798
1715439449535992000,2.370991943359375,0.10548877716064453,0.04644584655761719,-0.02203427255153656
1715439449545998300,2.380998291015625,0.0074443817138671875,0.038655757904052734,-0.024040721356868744
1715439449556004400,2.39100439453125,-0.051400184631347656,0.0218656063079834,-0.029532738029956818
1715439449566010600,2.4010107421875,-0.07677459716796875,0.016025304794311523,-0.016103163361549377
1715439449576016600,2.4110166015625,-0.04101848602294922,0.025757789611816406,-0.04143624007701874
1715439449586023000,2.42102294921875,0.0032072067260742188,0.03629708290100098,-0.10098123550415039
1715439449596029000,2.43102880859375,0.008749961853027344,0.06627511978149414,-0.18098115921020508
1715439449606035200,2.44103515625,-0.014298439025878906,0.06818509101867676,-0.17271946370601654
1715439449616041200,2.451041259765625,-0.06083488464355469,0.023846864700317383,-0.0912758857011795
1715439449626047500,2.461047607421875,-0.0880594253540039,-0.0048558712005615234,-0.0692698061466217
1715439449636053500,2.471053466796875,-0.07730674743652344,-0.00444483757019043,-0.11030440032482147
1715439449646059800,2.481059814453125,-0.06676769256591797,0.014891386032104492,-0.10445277392864227
1715439449656065800,2.491065673828125,-0.023252487182617188,0.019298076629638672,-0.04259960353374481
1715439449666072000,2.501072021484375,0.0011644363403320312,0.0224761962890625,-0.03376507759094238
1715439449676078000,2.511078125,0.021038055419921875,0.01944875717163086,-0.062362536787986755
1715439449686084400,2.52108447265625,-0.04838848114013672,0.010514497756958008,-0.06597816944122314
1715439449696090400,2.53109033203125,-0.15896034240722656,-0.012586832046508789,-0.03584156930446625
1715439449706096600,2.5410966796875,-0.23978137969970703,0.007940530776977539,-0.010876376181840897
1715439449716102700,2.5511025390625,-0.2821216583251953,0.024762868881225586,-0.02418707311153412
1715439449726109000,2.56110888671875,-0.2630434036254883,0.02842855453491211,-0.03268176317214966
1715439449736115000,2.571114990234375,-0.14578914642333984,0.06595301628112793,-0.04509131982922554
1715439449746121200,2.581121337890625,0.025970458984375,0.07469797134399414,-0.018302693963050842
1715439449756127200,2.591127197265625,0.11520576477050781,0.0399622917175293,-0.0004188884049654007
1715439449766133500,2.601133544921875,0.10924148559570312,0.02348947525024414,-0.01975317671895027
1715439449776139500,2.611139404296875,0.07550907135009766,0.025167465209960938,-0.024082202464342117
1715439449786145800,2.621145751953125,0.03790283203125,0.03085613250732422,-0.013176660053431988
1715439449796151800,2.63115185546875,-0.0037031173706054688,0.04096865653991699,-0.048771247267723083
1715439449806158000,2.641157958984375,-0.01647472381591797,0.041785240173339844,-0.0698009505867958
1715439449816164000,2.6511640625,-0.033814430236816406,0.04748988151550293,-0.12495674192905426
1715439449826170400,2.66117041015625,-0.05584239959716797,0.05377054214477539,-0.08182932436466217
1715439449836176400,2.67117626953125,-0.12972354888916016,0.0468747615814209,-0.026944248005747795
1715439449846182700,2.6811826171875,-0.16521072387695312,0.03192305564880371,-0.011676294729113579
1715439449856188700,2.691188720703125,-0.14406871795654297,0.03249716758728027,0.003359435126185417
1715439449866195000,2.70119482421875,-0.08580398559570312,0.02412557601928711,-0.014485867694020271
1715439449876201000,2.711200927734375,-0.07100391387939453,0.03501772880554199,-0.05071181803941727
1715439449886207200,2.721207275390625,-0.10828399658203125,0.05524325370788574,-0.09565408527851105
1715439449896213200,2.731213134765625,-0.18739700317382812,0.07061553001403809,-0.07373597472906113
1715439449906219500,2.741219482421875,-0.2654600143432617,0.05344247817993164,-0.037980638444423676
1715439449916225500,2.7512255859375,-0.3235797882080078,0.027617692947387695,-0.026192285120487213
1715439449926231800,2.761231689453125,-0.3288545608520508,0.025577068328857422,-0.05588710308074951
1715439449936238000,2.771238037109375,-0.3620157241821289,0.037027835845947266,-0.12616676092147827
1715439449946244000,2.781244140625,-0.4650125503540039,0.03829646110534668,-0.19878442585468292
1715439449956250400,2.79125048828125,-0.5709104537963867,0.02522134780883789,-0.2314435839653015
1715439449966256400,2.80125634765625,-0.6799650192260742,-0.0012011528015136719,-0.20632410049438477
1715439449976262700,2.8112626953125,-0.7923526763916016,-0.07785272598266602,-0.18596690893173218
1715439449986268700,2.8212685546875,-0.9269294738769531,-0.15192008018493652,-0.13291120529174805
1715439449996275000,2.83127490234375,-1.088226318359375,-0.23709940910339355,-0.05265560746192932
1715439450006281000,2.841281005859375,-1.3135871887207031,-0.342334508895874,0.04901683330535889
1715439450016287200,2.851287353515625,-1.550316333770752,-0.38216114044189453,0.057232778519392014
1715439450026293200,2.861293212890625,-1.8501925468444824,-0.3620181083679199,-0.061912111937999725
1715439450036299500,2.871299560546875,-2.1463394165039062,-0.3391575813293457,-0.20789659023284912
1715439450046305500,2.881305419921875,-2.424476146697998,-0.3140280246734619,-0.21668964624404907
1715439450056311800,2.891311767578125,-2.7635016441345215,-0.3149576187133789,-0.15338283777236938
1715439450066317800,2.90131787109375,-2.9436635971069336,-0.43070220947265625,-0.06927087157964706
1715439450076324000,2.911323974609375,-3.1657638549804688,-0.5132155418395996,0.13524071872234344
1715439450086330000,2.921330078125,-3.1910648345947266,-0.634080171585083,0.33594346046447754
1715439450096336400,2.93133642578125,-3.106032371520996,-0.7505860328674316,0.288196325302124
1715439450106342400,2.94134228515625,-3.0883331298828125,-0.8943369388580322,0.3951388895511627
1715439450116348700,2.9513486328125,-2.918191909790039,-0.7271597385406494,0.23061765730381012
1715439450126354700,2.961354736328125,-2.95023250579834,-0.8012340068817139,0.08695445954799652
1715439450136361000,2.97136083984375,-2.816784381866455,-0.9091598987579346,0.25261548161506653
1715439450146367000,2.981366943359375,-3.011136054992676,-0.9996764659881592,0.2700827419757843
1715439450156373200,2.991373291015625,-2.9849090576171875,-1.0251884460449219,0.44829460978507996
1715439450166379300,3.001379150390625,-2.9570674896240234,-1.1368467807769775,0.43897271156311035
1715439450176385500,3.011385498046875,-3.0127058029174805,-1.2160606384277344,0.24223390221595764
1715439450186391600,3.0213916015625,-3.0173959732055664,-1.3156986236572266,0.32824090123176575
1715439450196397800,3.031397705078125,-2.7133450508117676,-1.378029465675354,0.3012203872203827
1715439450206403800,3.04140380859375,-1.8798270225524902,-1.436492919921875,0.3917808532714844
1715439450216410000,3.05141015625,-1.0237655639648438,-1.898780345916748,1.2678593397140503
1715439450226416000,3.061416015625,-0.07631874084472656,-1.7677369117736816,1.325162649154663
1715439450236422400,3.07142236328125,0.6020069122314453,-1.531051754951477,1.0523326396942139
1715439450246428700,3.0814287109375,0.9833087921142578,-1.2400084733963013,0.5955421924591064
1715439450256434700,3.0914345703125,0.6803455352783203,-0.8354218006134033,0.048429906368255615
1715439450266441000,3.10144091796875,0.00356292724609375,-0.4074721336364746,-0.4215855002403259
1715439450276447200,3.111447265625,-0.9007911682128906,-0.10058283805847168,-0.8035223484039307
1715439450286453200,3.121453369140625,-1.6919960975646973,0.042989253997802734,-1.0857013463974
1715439450296459500,3.13145947265625,-2.049762725830078,0.3298196792602539,-0.8228257894515991
1715439450306465800,3.1414658203125,-2.095682144165039,0.11589455604553223,-1.1152098178863525
1715439450316472000,3.15147216796875,-0.2935152053833008,-0.32070207595825195,-1.289541482925415
1715439450326478000,3.16147802734375,1.8566579818725586,-0.5114485025405884,-0.9669797420501709
1715439450336484400,3.171484375,3.3123931884765625,-0.7772730588912964,-0.7100570797920227
1715439450346490600,3.18149072265625,4.304186820983887,-1.181689977645874,-1.0730031728744507
1715439450356496600,3.19149658203125,5.532569885253906,-0.9125000238418579,-1.348504900932312
1715439450366503000,3.2015029296875,5.742688179016113,-0.2779189348220825,-2.105321168899536
1715439450376509200,3.21150927734375,5.027396202087402,0.23447132110595703,-2.281747579574585
1715439450386515500,3.221515380859375,3.4815053939819336,0.6230871677398682,-1.7768727540969849
1715439450396521500,3.231521484375,1.195444107055664,1.4170970916748047,-0.8439472913742065
1715439450406527700,3.24152783203125,0.011616706848144531,1.1657533645629883,-1.1390440464019775
1715439450416534000,3.251533935546875,-2.8666062355041504,2.409231424331665,-0.5322268605232239
1715439450426540000,3.2615400390625,-8.820149421691895,4.933042526245117,-0.5676461458206177
1715439450436546300,3.27154638671875,-6.594056129455566,4.3756914138793945,0.6661311388015747
1715439450446552600,3.281552490234375,2.521908760070801,1.844818353652954,3.1168079376220703
1715439450456558800,3.291558837890625,8.441362380981445,-0.8448123931884766,2.091130256652832
1715439450466564900,3.30156494140625,9.877835273742676,-1.3645405769348145,2.928548574447632
1715439450476571100,3.311571044921875,13.336502075195312,-1.7219966650009155,3.1577208042144775
1715439450486577400,3.321577392578125,15.398554801940918,-1.4818534851074219,2.832829475402832
1715439450496583400,3.33158349609375,15.540093421936035,-0.860722541809082,2.644425392150879
1715439450506589700,3.341589599609375,12.61552619934082,0.3236868977546692,1.8258147239685059
1715439450516596000,3.351595947265625,8.351432800292969,0.9673212766647339,0.266340434551239
1715439450526602200,3.361602294921875,4.970661163330078,1.0548341274261475,-1.0286543369293213
1715439450536608300,3.371608154296875,2.4263696670532227,0.8516041040420532,-1.5739165544509888
1715439450546614500,3.381614501953125,0.1828775405883789,0.42787832021713257,-1.4800907373428345
1715439450556620500,3.39162060546875,-1.5373620986938477,-0.17683067917823792,-1.2432461977005005
1715439450566626800,3.401626708984375,-2.7124032974243164,-0.8194417953491211,-0.9266639351844788
1715439450576632800,3.4116328125,-3.289851665496826,-1.349787712097168,-0.531449556350708
1715439450586639000,3.42163916015625,-3.58363676071167,-1.6491981744766235,-0.12854278087615967
1715439450596645000,3.43164501953125,-3.8912153244018555,-1.6353027820587158,0.3734079599380493
1715439450606651400,3.4416513671875,-3.2572360038757324,-1.538771152496338,0.7652127742767334
1715439450616657400,3.451657470703125,-2.3510537147521973,-1.3207913637161255,0.8899167776107788
1715439450626663700,3.46166357421875,-1.7779064178466797,-0.8997459411621094,0.8351703882217407
1715439450636669700,3.471669677734375,-0.7049369812011719,-0.48797738552093506,0.588749885559082
1715439450646676000,3.481676025390625,0.26084232330322266,-0.123893141746521,0.4653846025466919
1715439450656682000,3.491681884765625,1.0484743118286133,0.25182074308395386,0.471084326505661
1715439450666688300,3.501688232421875,1.6155776977539062,0.5382499694824219,0.5200510621070862
1715439450676694300,3.5116943359375,1.9197826385498047,0.6989018321037292,0.574724555015564
1715439450686700500,3.521700439453125,1.9522666931152344,0.6944820284843445,0.6796155571937561
1715439450696706600,3.53170654296875,1.7328853607177734,0.5023199319839478,0.7391726970672607
1715439450706712800,3.541712890625,1.2192754745483398,0.217302143573761,0.5980315804481506
1715439450716718800,3.55171875,0.6364650726318359,-0.0166664719581604,0.40450841188430786
1715439450726725000,3.56172509765625,0.09882164001464844,-0.12751948833465576,0.19447164237499237
1715439450736731100,3.571731201171875,-0.2845487594604492,-0.15864402055740356,-0.05851832032203674
1715439450746737400,3.5817373046875,-0.43352699279785156,-0.1165120005607605,-0.33657169342041016
1715439450756743400,3.591743408203125,-0.34912776947021484,0.004050493240356445,-0.5566807985305786
1715439450766749700,3.601749755859375,-0.1179819107055664,0.12005019187927246,-0.6189761757850647
1715439450776755700,3.611755615234375,0.13089275360107422,0.2093050479888916,-0.6165128946304321
1715439450786762000,3.621761962890625,0.29752635955810547,0.25499898195266724,-0.5891493558883667
1715439450796768000,3.63176806640625,0.2438831329345703,0.275654673576355,-0.4911794662475586
1715439450806774300,3.641774169921875,0.06622695922851562,0.21471703052520752,-0.30447813868522644
1715439450816780300,3.6517802734375,-0.04401683807373047,0.1262567639350891,-0.044334471225738525
1715439450826786600,3.66178662109375,-0.010575294494628906,0.0915711522102356,0.080780029296875
1715439450836792600,3.67179248046875,0.11845779418945312,0.0806160569190979,-0.02489691972732544
1715439450846798800,3.681798828125,0.22342395782470703,0.06876832246780396,-0.1856149137020111
1715439450856804900,3.691804931640625,0.26610755920410156,0.09906470775604248,-0.32676780223846436
1715439450866811100,3.70181103515625,0.21794891357421875,0.11468154191970825,-0.42540740966796875
1715439450876817200,3.711817138671875,0.17461395263671875,0.13081324100494385,-0.4536091089248657
1715439450886823400,3.721823486328125,0.16000747680664062,0.1090630292892456,-0.45390385389328003
1715439450896829400,3.731829345703125,0.17406082153320312,0.07330989837646484,-0.3977162539958954
1715439450906835700,3.741835693359375,0.1498708724975586,0.08525055646896362,-0.26633766293525696
1715439450916841700,3.751841796875,0.07315444946289062,0.1072959303855896,-0.16508302092552185
1715439450926848000,3.761847900390625,0.07292556762695312,0.11607092618942261,-0.15674066543579102
1715439450936854000,3.77185400390625,0.09168720245361328,0.13995319604873657,-0.2704535126686096
1715439450946860300,3.7818603515625,0.10076332092285156,0.14027196168899536,-0.37784096598625183
1715439450956866300,3.7918662109375,0.07629680633544922,0.13172376155853271,-0.39299672842025757
1715439450966872600,3.80187255859375,0.03267669677734375,0.11974126100540161,-0.3447004556655884
1715439450976878600,3.811878662109375,-0.049149513244628906,0.09532010555267334,-0.2797945439815521
1715439450986884900,3.821884765625,-0.0687723159790039,0.054043471813201904,-0.17751826345920563
1715439450996891000,3.831890869140625,0.02146434783935547,0.02899003028869629,-0.0215960294008255
1715439451006897200,3.841897216796875,0.13541889190673828,0.03321284055709839,0.127772718667984
1715439451016903200,3.851903076171875,0.2014904022216797,0.06518781185150146,0.17532970011234283
1715439451026909400,3.861909423828125,0.21505451202392578,0.1146620512008667,0.15371643006801605
1715439451036915500,3.87191552734375,0.16662311553955078,0.15354377031326294,0.10940515995025635
1715439451046921700,3.881921630859375,0.07536792755126953,0.1590045690536499,0.06498825550079346
1715439451056927700,3.891927734375,-0.0013818740844726562,0.1418105959892273,-0.003731522709131241
1715439451066934000,3.90193408203125,-0.07323837280273438,0.11177551746368408,-0.028928164392709732
1715439451076940000,3.91193994140625,-0.07811450958251953,0.0687214732170105,-0.04319468513131142
1715439451086946300,3.9219462890625,-0.030515670776367188,0.0076947808265686035,-0.04988761618733406
1715439451096952300,3.931952392578125,0.031244277954101562,0.009315669536590576,-0.023921415209770203
1715439451106958600,3.94195849609375,0.09762763977050781,0.03439021110534668,0.006168432533740997
1715439451116964600,3.951964599609375,0.23075580596923828,0.06323885917663574,0.03934236615896225
1715439451126971000,3.961970947265625,0.33022403717041016,0.09523487091064453,0.02639012783765793
1715439451136977000,3.971976806640625,0.29105091094970703,0.1352558135986328,-0.07734861969947815
1715439451146983200,3.981983154296875,0.24251174926757812,0.14548957347869873,-0.18550783395767212
1715439451156989200,3.9919892578125,0.20368385314941406,0.16951578855514526,-0.23548737168312073
1715439451166995500,4.001995361328125,0.2050313949584961,0.19494843482971191,-0.24348151683807373
1715439451177001500,4.01200146484375,0.2111053466796875,0.17237108945846558,-0.27011653780937195
1715439451187007700,4.0220078125,0.20297813415527344,0.13114631175994873,-0.3112274408340454
1715439451197014000,4.032013916015625,0.18558025360107422,0.10474652051925659,-0.28201422095298767
1715439451207020000,4.04202001953125,0.21084308624267578,0.1119605302810669,-0.19766581058502197
1715439451217026300,4.0520263671875,0.30165767669677734,0.13247251510620117,-0.11884896457195282
1715439451227032300,4.0620322265625,0.3675565719604492,0.11754071712493896,-0.038466744124889374
1715439451237038600,4.07203857421875,0.30071353912353516,0.062434256076812744,0.029128938913345337
1715439451247044600,4.082044677734375,0.19274520874023438,-0.002909719944000244,0.054274171590805054
1715439451257051000,4.09205078125,0.07721900939941406,-0.011282384395599365,0.05551104247570038
1715439451267057000,4.102056884765625,-0.03643321990966797,0.018859148025512695,0.00948312133550644
1715439451277063200,4.112063232421875,-0.09180259704589844,0.06885480880737305,-0.06971031427383423
1715439451287069200,4.122069091796875,-0.0992889404296875,0.11043155193328857,-0.18296781182289124
1715439451297075500,4.132075439453125,-0.08324909210205078,0.13442355394363403,-0.2965271472930908
1715439451307081500,4.14208154296875,-0.0016641616821289062,0.1028476357460022,-0.22064201533794403
1715439451317087700,4.152087646484375,0.06909370422363281,0.1052655577659607,-0.051433175802230835
1715439451327093800,4.16209375,0.08214378356933594,0.08419108390808105,-0.015387773513793945
1715439451337100000,4.17210009765625,0.07143878936767578,0.07728785276412964,-0.07248632609844208
1715439451347106000,4.18210595703125,-0.005047798156738281,0.08493494987487793,-0.09939068555831909
1715439451357112300,4.1921123046875,-0.04738330841064453,0.08856987953186035,-0.16276468336582184
1715439451367118300,4.202118408203125,-0.10796260833740234,0.12163782119750977,-0.17292526364326477
1715439451377124600,4.21212451171875,-0.16298484802246094,0.11832714080810547,-0.10785584896802902
1715439451387130600,4.222130615234375,-0.2172689437866211,0.12181180715560913,-0.12420408427715302
1715439451397137000,4.232136962890625,-0.21905517578125,0.11344778537750244,-0.16881823539733887
1715439451407143000,4.242142822265625,-0.1833362579345703,0.07920831441879272,-0.20328915119171143
1715439451417149200,4.252149169921875,-0.10126876831054688,0.05208104848861694,-0.1954617202281952
1715439451427155200,4.2621552734375,0.021721839904785156,0.02202296257019043,-0.14194072782993317
1715439451437161500,4.272161376953125,0.12381935119628906,0.04477196931838989,-0.10507048666477203
1715439451447167500,4.28216748046875,0.20541954040527344,0.09539413452148438,-0.037649624049663544
1715439451457173800,4.292173828125,0.29517269134521484,0.14435553550720215,-0.0521375946700573
1715439451467179800,4.3021796875,0.3647480010986328,0.16732996702194214,-0.10912182182073593
1715439451477186000,4.31218603515625,0.4380645751953125,0.16874557733535767,-0.1362566500902176
1715439451487192000,4.322192138671875,0.41617298126220703,0.12521809339523315,-0.13746331632137299
1715439451497198300,4.3321982421875,0.3430023193359375,0.08499020338058472,-0.11339904367923737
1715439451507204400,4.342204345703125,0.24289703369140625,0.05342423915863037,-0.10254330933094025
1715439451517210600,4.352210693359375,0.14452648162841797,0.03569275140762329,-0.09206496179103851
1715439451527216600,4.362216552734375,0.14670562744140625,0.05101197957992554,-0.049712926149368286
1715439451537223000,4.372222900390625,0.13948631286621094,0.08429241180419922,0.005477443337440491
1715439451547229000,4.38222900390625,0.06179523468017578,0.11210018396377563,-0.021902382373809814
1715439451557235200,4.392235107421875,0.023065567016601562,0.13043862581253052,-0.09817787259817123
1715439451567241200,4.4022412109375,0.046169281005859375,0.14427924156188965,-0.10831676423549652
1715439451577247500,4.41224755859375,0.11599349975585938,0.12912911176681519,-0.06937660276889801
1715439451587253500,4.42225341796875,0.03400421142578125,0.10870194435119629,-0.03291488438844681
1715439451597259800,4.432259765625,-0.04665660858154297,0.07929587364196777,-0.07503698766231537
1715439451607266000,4.44226611328125,-0.10723590850830078,0.08917826414108276,-0.12999336421489716
1715439451617272000,4.45227197265625,-0.12924957275390625,0.09572833776473999,-0.11876750737428665
1715439451627278300,4.4622783203125,-0.06623077392578125,0.08456540107727051,-0.13651566207408905
1715439451637284600,4.47228466796875,0.03808784484863281,0.0364375114440918,-0.1501172035932541
1715439451647291000,4.482290771484375,0.1312541961669922,0.01265937089920044,-0.10240616649389267
1715439451657297000,4.492296875,0.24174976348876953,0.026230275630950928,0.0018391162157058716
1715439451667303200,4.50230322265625,0.2846097946166992,0.04232746362686157,0.08743329346179962
1715439451677309400,4.512309326171875,0.2185802459716797,0.06571543216705322,0.06954008340835571
1715439451687315500,4.5223154296875,0.10662651062011719,0.07376325130462646,-0.027863629162311554
1715439451697321700,4.53232177734375,0.001239776611328125,0.07737845182418823,-0.1443215310573578
1715439451707328000,4.542327880859375,-0.041233062744140625,0.08667463064193726,-0.2325805425643921
1715439451717334300,4.552334228515625,-0.06892108917236328,0.09685325622558594,-0.23234017193317413
1715439451727340300,4.56234033203125,-0.0867910385131836,0.07974636554718018,-0.17770396173000336
1715439451737346600,4.5723466796875,0.018021583557128906,0.02587413787841797,-0.10086766630411148
1715439451747352800,4.582352783203125,0.14937782287597656,0.019266724586486816,0.042057886719703674
1715439451757358800,4.59235888671875,0.29749011993408203,0.04827672243118286,0.15369783341884613
1715439451767365000,4.602365234375,0.35384368896484375,0.07832223176956177,0.16958636045455933
1715439451777371400,4.612371337890625,0.3387718200683594,0.09587794542312622,0.06703361868858337
1715439451787377700,4.622377685546875,0.3005542755126953,0.05928772687911987,-0.036531366407871246
1715439451797383700,4.6323837890625,0.18773460388183594,0.04131913185119629,-0.08810921013355255
1715439451807390000,4.642389892578125,0.03912925720214844,0.07114744186401367,-0.1170344203710556
1715439451817396200,4.652396240234375,-0.0646963119506836,0.12515437602996826,-0.18367478251457214
1715439451827402200,4.66240234375,-0.08210372924804688,0.15094053745269775,-0.20164653658866882
1715439451837408500,4.672408447265625,-0.028616905212402344,0.13894188404083252,-0.15640433132648468
1715439451847414800,4.682414794921875,0.07582855224609375,0.12642741203308105,-0.10435929894447327
1715439451857420800,4.6924208984375,0.09860706329345703,0.1363304853439331,-0.13937604427337646
1715439451867427000,4.702427001953125,0.05048561096191406,0.13572782278060913,-0.1999550759792328
1715439451877433300,4.712433349609375,-0.04384040832519531,0.120597243309021,-0.20247581601142883
1715439451887439600,4.722439697265625,-0.12247467041015625,0.08749699592590332,-0.16315673291683197
1715439451897445600,4.732445556640625,-0.11513042449951172,0.06098759174346924,-0.13169825077056885
1715439451907452000,4.742451904296875,-0.07504653930664062,0.036148250102996826,-0.09966109693050385
1715439451917458200,4.752458251953125,-0.040419578552246094,0.012540698051452637,-0.07626420259475708
1715439451927464200,4.762464111328125,-0.03469657897949219,0.013585865497589111,-0.0561312735080719
1715439451937470500,4.772470458984375,0.008554458618164062,0.024439215660095215,-0.03798550367355347
1715439451947476700,4.782476806640625,0.08875370025634766,0.030404508113861084,-0.025131963193416595
1715439451957482800,4.792482666015625,0.1346874237060547,0.040569305419921875,-0.08392436802387238
1715439451967489000,4.802489013671875,0.08568954467773438,0.08331656455993652,-0.12005973607301712
1715439451977495000,4.8124951171875,-0.04733085632324219,0.12125426530838013,-0.1638285517692566
1715439451987501300,4.822501220703125,-0.17355918884277344,0.1315343976020813,-0.17203587293624878
1715439451997507300,4.83250732421875,-0.2601947784423828,0.06814980506896973,-0.11116497218608856
1715439452007513600,4.842513671875,-0.24198532104492188,-0.010958850383758545,-0.03328167647123337
1715439452017519600,4.85251953125,-0.16773414611816406,-0.03510397672653198,0.05809566378593445
1715439452027526000,4.86252587890625,-0.0900869369506836,-0.020146071910858154,0.10729964077472687
1715439452037532000,4.872531982421875,0.038048744201660156,0.03725510835647583,0.11066658794879913
1715439452047538200,4.8825380859375,0.13116836547851562,0.09769636392593384,0.04118192195892334
1715439452057544200,4.892544189453125,0.16633892059326172,0.13717061281204224,-0.07840874791145325
1715439452067550500,4.902550537109375,0.14447975158691406,0.11876583099365234,-0.14066781103610992
1715439452077556500,4.912556396484375,0.1748189926147461,0.10015302896499634,-0.14238297939300537
1715439452087562800,4.922562744140625,0.14819049835205078,0.09075343608856201,-0.14085330069065094
1715439452097568800,4.93256884765625,0.09848976135253906,0.08120262622833252,-0.1545391082763672
1715439452107575000,4.942574951171875,0.021366119384765625,0.06710255146026611,-0.15452466905117035
1715439452117581000,4.9525810546875,-0.06863117218017578,0.05364865064620972,-0.1314057558774948
1715439452127587300,4.96258740234375,-0.124237060546875,0.04124128818511963,-0.0800272598862648
1715439452137593300,4.97259326171875,-0.13661575317382812,0.034674227237701416,-0.04269624128937721
1715439452147599600,4.982599609375,-0.15829086303710938,0.03395211696624756,-0.004633322358131409
1715439452157605600,4.992605712890625,-0.17025375366210938,0.03406280279159546,0.025775454938411713
1715439452167612000,5.00261181640625,-0.15384387969970703,0.02096790075302124,0.03936869278550148
1715439452177618000,5.012617919921875,-0.1236572265625,-0.005113184452056885,0.034989792853593826
1715439452187624200,5.022624267578125,-0.009284019470214844,-0.006397604942321777,0.030857868492603302
1715439452197630200,5.032630126953125,0.15030288696289062,0.010866880416870117,0.06464524567127228
1715439452207636500,5.042636474609375,0.24144458770751953,0.05456000566482544,0.055775340646505356
1715439452217642500,5.052642578125,0.3076915740966797,0.08616191148757935,-0.009398027323186398
1715439452227648800,5.062648681640625,0.3023710250854492,0.10116416215896606,-0.04520729184150696
1715439452237654800,5.07265478515625,0.2219390869140625,0.09544092416763306,-0.08009355515241623
1715439452247661000,5.0826611328125,0.1288003921508789,0.07947266101837158,-0.13772618770599365
1715439452257667000,5.0926669921875,0.051349639892578125,0.05896031856536865,-0.1705547422170639
1715439452267673300,5.10267333984375,0.0033979415893554688,0.04401284456253052,-0.20839235186576843
1715439452277679400,5.112679443359375,-0.00614166259765625,0.039347708225250244,-0.22385525703430176
1715439452287685600,5.122685546875,0.022088050842285156,0.06362688541412354,-0.22725620865821838
1715439452297691600,5.132691650390625,0.06395626068115234,0.0970190167427063,-0.20990175008773804
1715439452307698000,5.142697998046875,0.09573173522949219,0.1107100248336792,-0.1813502460718155
1715439452317704000,5.152703857421875,0.1176137924194336,0.1329723596572876,-0.12693557143211365
1715439452327710200,5.162710205078125,0.08737754821777344,0.1309099793434143,-0.08403046429157257
1715439452337716200,5.17271630859375,0.0011701583862304688,0.11926120519638062,-0.06562606245279312
1715439452347722500,5.182722412109375,-0.0930337905883789,0.1034092903137207,-0.06085817143321037
1715439452357728500,5.192728515625,-0.13864421844482422,0.07922923564910889,-0.04101444408297539
1715439452367734800,5.20273486328125,-0.14120006561279297,0.04706496000289917,-0.025068338960409164
1715439452377740800,5.21274072265625,-0.07313251495361328,0.011346578598022461,-0.022698041051626205
1715439452387747000,5.2227470703125,-0.010907173156738281,-0.004940927028656006,-0.010014977306127548
1715439452397753000,5.232753173828125,0.04556465148925781,0.002688884735107422,0.003408338874578476
1715439452407759400,5.24275927734375,0.12467765808105469,0.009780406951904297,-0.02594897896051407
1715439452417765600,5.252765625,0.18369674682617188,0.049201130867004395,-0.07088823616504669
1715439452427771600,5.262771728515625,0.25594329833984375,0.08724939823150635,-0.1083630919456482
1715439452437778000,5.27277783203125,0.29416656494140625,0.09978991746902466,-0.15233592689037323
1715439452447784000,5.282783935546875,0.2612743377685547,0.09185749292373657,-0.19730740785598755
1715439452457790200,5.292790283203125,0.1725444793701172,0.05949902534484863,-0.18635599315166473
1715439452467796200,5.302796142578125,0.02412128448486328,0.018168866634368896,-0.11041964590549469
1715439452477802500,5.312802490234375,-0.11243057250976562,-0.01253122091293335,-0.03565604239702225
1715439452487808500,5.32280859375,-0.19028186798095703,-0.022751450538635254,0.010274559259414673
1715439452497814800,5.332814697265625,-0.26695728302001953,-0.03136277198791504,0.03329296410083771
1715439452507820800,5.34282080078125,-0.28598499298095703,-0.02416849136352539,0.047916755080223083
1715439452517827000,5.3528271484375,-0.2860097885131836,-0.010546624660491943,0.05817946791648865
1715439452527833000,5.3628330078125,-0.22025775909423828,0.004890620708465576,0.025550350546836853
1715439452537839400,5.37283935546875,-0.12743377685546875,0.03583407402038574,-0.055028051137924194
1715439452547845400,5.382845458984375,-0.08797073364257812,0.08623427152633667,-0.11279691010713577
1715439452557851600,5.3928515625,-0.05858135223388672,0.09907001256942749,-0.10077594220638275
1715439452567857700,5.402857666015625,0.0032939910888671875,0.11221450567245483,-0.07085338234901428
1715439452577864000,5.412864013671875,0.06417655944824219,0.11521118879318237,-0.03987903892993927
1715439452587870000,5.422869873046875,0.0816802978515625,0.10300064086914062,-0.006006717681884766
1715439452597876200,5.432876220703125,0.07068252563476562,0.07530808448791504,0.01651906967163086
1715439452607882200,5.44288232421875,0.064605712890625,0.06104820966720581,0.01745101809501648
1715439452617888500,5.452888427734375,0.09630680084228516,0.06931304931640625,0.007174760103225708
1715439452627894500,5.46289453125,0.15575504302978516,0.08028197288513184,0.000809401273727417
1715439452637900800,5.47290087890625,0.12947654724121094,0.07036298513412476,0.04067659378051758
1715439452647906800,5.48290673828125,0.09894657135009766,0.049828290939331055,0.0495549738407135
1715439452657913000,5.4929130859375,0.15369796752929688,0.06656187772750854,0.0030740201473236084
1715439452667919000,5.502919189453125,0.2594184875488281,0.11473023891448975,-0.10810649394989014
1715439452677925400,5.51292529296875,0.23640727996826172,0.1465495228767395,-0.2659022808074951
1715439452687931400,5.522931396484375,0.10092830657958984,0.1438930630683899,-0.3385867178440094
1715439452697937700,5.532937744140625,-0.013401985168457031,0.0991584062576294,-0.34182751178741455
1715439452707944000,5.54294384765625,-0.04578685760498047,0.04661792516708374,-0.2905846834182739
1715439452717950200,5.5529501953125,-0.04940509796142578,0.0146409273147583,-0.18992730975151062
1715439452727956200,5.562956298828125,-0.10479450225830078,0.01688706874847412,-0.04460807144641876
1715439452737962500,5.57296240234375,-0.24877071380615234,0.04395776987075806,0.1433752179145813
1715439452747968800,5.58296875,-0.2492542266845703,-0.016641199588775635,-0.020663976669311523
1715439452757974800,5.592974853515625,-0.0662240982055664,-0.04703342914581299,-0.16603928804397583
1715439452767981000,5.60298095703125,-0.05104541778564453,-0.0017648935317993164,-0.15304817259311676
1715439452777987300,5.6129873046875,-0.09264755249023438,0.07624304294586182,-0.11258503794670105
1715439452787993600,5.62299365234375,-0.06298160552978516,0.09268122911453247,-0.06874485313892365
1715439452797999600,5.63299951171875,0.036803245544433594,0.08563530445098877,-0.08710923790931702
1715439452808006000,5.643005859375,0.20087528228759766,0.05927091836929321,0.0038176774978637695
1715439452818012200,5.65301220703125,0.16459274291992188,0.09790635108947754,0.15358060598373413
1715439452828018200,5.66301806640625,0.14782428741455078,0.07917642593383789,-0.03977775573730469
1715439452838024400,5.6730244140625,0.29149627685546875,0.012469112873077393,-0.1536145657300949
1715439452848030700,5.68303076171875,0.2916707992553711,0.06706583499908447,-0.12354995310306549
1715439452858036700,5.69303662109375,0.1554098129272461,0.053622663021087646,-0.09446091949939728
1715439452868043000,5.70304296875,0.021454811096191406,0.06418085098266602,-0.1708473116159439
1715439452878049300,5.71304931640625,-0.1197347640991211,0.014407575130462646,-0.10557951033115387
1715439452888055600,5.7230556640625,-0.16450786590576172,-0.027860581874847412,-0.05676862597465515
1715439452898061600,5.7330615234375,-0.1709604263305664,-0.030108213424682617,-0.042534321546554565
1715439452908067800,5.74306787109375,-0.18688201904296875,-0.04499632120132446,0.010475307703018188
1715439452918074000,5.75307421875,-0.11322975158691406,-0.030790209770202637,0.0890900194644928
1715439452928080100,5.763080078125,-0.09267139434814453,-0.03150683641433716,0.13181236386299133
1715439452938086400,5.77308642578125,-0.2137279510498047,0.038452208042144775,0.20242193341255188
1715439452948092700,5.7830927734375,-0.14925289154052734,0.03257375955581665,0.03346967697143555
1715439452958099000,5.793098876953125,0.04584026336669922,0.021651506423950195,-0.03403201699256897
1715439452968105000,5.80310498046875,0.1670818328857422,0.06094861030578613,-0.055237799882888794
1715439452978111200,5.813111328125,0.16867828369140625,0.14052283763885498,-0.09419417381286621
1715439452988117500,5.823117431640625,0.10441398620605469,0.1756676435470581,-0.12369148433208466
1715439452998123500,5.83312353515625,0.07426643371582031,0.1590559482574463,-0.14669153094291687
1715439453008129800,5.8431298828125,0.2282543182373047,0.06279206275939941,-0.21652977168560028
1715439453018136000,5.853135986328125,0.37036609649658203,0.01767885684967041,-0.14192675054073334
1715439453028142300,5.863142333984375,0.3031501770019531,0.026733338832855225,-0.10061414539813995
1715439453038148400,5.8731484375,0.1666421890258789,0.0753433108329773,-0.11631935834884644
1715439453048154600,5.883154541015625,-0.00043582916259765625,0.09848213195800781,-0.11799870431423187
1715439453058161000,5.893160888671875,-0.09407806396484375,0.07918846607208252,-0.06895077228546143
1715439453068167000,5.9031669921875,-0.11557197570800781,0.061043381690979004,-0.025958716869354248
1715439453078173200,5.913173095703125,-0.14148426055908203,0.0486333966255188,0.016817986965179443
1715439453088179200,5.92317919921875,-0.1906118392944336,0.013807237148284912,0.041089922189712524
1715439453098185500,5.933185546875,-0.18728351593017578,-0.028845906257629395,0.08160272240638733
1715439453108191500,5.94319140625,-0.21236133575439453,-0.05106329917907715,0.14600270986557007
1715439453118197800,5.95319775390625,-0.1900310516357422,-0.04345804452896118,0.05393609404563904
1715439453128203800,5.963203857421875,-0.1257791519165039,-0.0537949800491333,0.0011989176273345947
1715439453138210000,5.9732099609375,-0.1474008560180664,-0.034800708293914795,0.0050723254680633545
1715439453148216000,5.983216064453125,-0.17816925048828125,-0.014597892761230469,0.017012804746627808
1715439453158222300,5.993222412109375,-0.18497753143310547,-0.007123768329620361,0.02684330940246582
1715439453168228400,6.003228271484375,-0.1446704864501953,0.0018562674522399902,0.02507975697517395
1715439453178234600,6.013234619140625,-0.13335037231445312,-0.0021198391914367676,0.11571952700614929
1715439453188240600,6.02324072265625,-0.10816001892089844,0.03775840997695923,0.1699196994304657
1715439453198247000,6.033246826171875,0.14727020263671875,0.015745580196380615,0.018648594617843628
1715439453208253000,6.0432529296875,0.37032604217529297,0.024185597896575928,-0.022196844220161438
1715439453218259200,6.05325927734375,0.3968782424926758,0.05703693628311157,-0.018017902970314026
1715439453228265200,6.06326513671875,0.3007783889770508,0.11481910943984985,-0.03161323070526123
1715439453238271500,6.073271484375,0.13579463958740234,0.12300705909729004,-0.07332158088684082
1715439453248277500,6.083277587890625,-0.012272834777832031,0.10762500762939453,-0.16318511962890625
1715439453258283800,6.09328369140625,-0.0967254638671875,0.07983273267745972,-0.19747662544250488
1715439453268289800,6.103289794921875,-0.05274391174316406,0.049456655979156494,-0.15274804830551147
1715439453278296000,6.113296142578125,0.06110954284667969,0.020001351833343506,-0.0856427326798439
1715439453288302000,6.123302001953125,0.11190986633300781,0.009048223495483398,-0.03295746445655823
1715439453298308400,6.133308349609375,0.053668975830078125,0.02518707513809204,0.05265241861343384
1715439453308314400,6.143314453125,-0.01772594451904297,0.03603440523147583,-0.040415868163108826
1715439453318320600,6.153320556640625,-0.02677440643310547,0.01855558156967163,-0.1004975289106369
1715439453328326700,6.16332666015625,-0.08278560638427734,0.029929161071777344,-0.11636770516633987
1715439453338333000,6.1733330078125,-0.1473531723022461,0.03764235973358154,-0.15235337615013123
1715439453348339000,6.1833388671875,-0.18270111083984375,0.06581884622573853,-0.17622500658035278
1715439453358345200,6.19334521484375,-0.17992019653320312,0.08597075939178467,-0.19250750541687012
1715439453368351200,6.203351318359375,-0.12549686431884766,0.0601503849029541,-0.1346943974494934
1715439453378357500,6.213357421875,-0.039073944091796875,0.0307733416557312,-0.09260605275630951
1715439453388363500,6.223363525390625,0.060062408447265625,0.029932498931884766,-0.14601698517799377
1715439453398369800,6.233369873046875,0.08226966857910156,0.05214112997055054,-0.18109330534934998
1715439453408375800,6.243375732421875,-0.0041599273681640625,0.05484318733215332,-0.13590005040168762
1715439453418382000,6.253382080078125,-0.075042724609375,0.03426563739776611,-0.08255676180124283
1715439453428388000,6.26338818359375,-0.0835866928100586,0.019458413124084473,-0.007167354226112366
1715439453438394400,6.273394287109375,-0.030828475952148438,-0.018032193183898926,0.03895548731088638
1715439453448400400,6.283400390625,0.0210723876953125,-0.01754075288772583,0.037867628037929535
1715439453458406700,6.29340673828125,0.04392814636230469,-0.013275444507598877,0.06588164716959
1715439453468412700,6.30341259765625,0.06177043914794922,-0.014926552772521973,0.14722149074077606
1715439453478419000,6.3134189453125,0.18770408630371094,0.0387110710144043,0.058888278901576996
1715439453488425200,6.32342529296875,0.2034006118774414,0.09902256727218628,-0.06607764214277267
1715439453498431200,6.33343115234375,0.1671600341796875,0.142869234085083,-0.08613418787717819
1715439453508437500,6.3434375,0.15515804290771484,0.12385052442550659,-0.10734114050865173
1715439453518443500,6.353443603515625,0.09631824493408203,0.08600819110870361,-0.13049620389938354
1715439453528449800,6.36344970703125,-0.02274608612060547,0.06773644685745239,-0.13129493594169617
1715439453538455800,6.373455810546875,-0.11632728576660156,0.031555354595184326,-0.08573362231254578
1715439453548462000,6.383462158203125,-0.10483264923095703,0.020344316959381104,-0.06876210868358612
1715439453558468000,6.393468017578125,-0.008795738220214844,0.0002116560935974121,-0.05257932469248772
1715439453568474400,6.403474365234375,0.0055999755859375,0.0039580464363098145,-0.0323697030544281
1715439453578480400,6.41348046875,0.010340690612792969,0.026371896266937256,-0.006946973502635956
1715439453588486700,6.423486572265625,0.0009174346923828125,0.01483231782913208,0.009991079568862915
1715439453598492700,6.43349267578125,-0.017759323120117188,0.007985711097717285,-0.009974636137485504
1715439453608499000,6.4434990234375,0.0627603530883789,0.02008897066116333,-0.044154390692710876
1715439453618505000,6.4535048828125,0.0854501724243164,0.036804378032684326,-0.06581975519657135
1715439453628511200,6.46351123046875,-0.009931564331054688,0.04853415489196777,-0.08878184854984283
1715439453638517200,6.473517333984375,-0.113189697265625,0.04195946455001831,-0.07935509830713272
1715439453648523500,6.4835234375,-0.15830612182617188,0.022400856018066406,-0.04215075820684433
1715439453658529500,6.493529541015625,-0.1368722915649414,-0.037770628929138184,0.018005087971687317
1715439453668535800,6.503535888671875,-0.007564544677734375,-0.039620161056518555,-0.002935364842414856
1715439453678541800,6.513541748046875,0.0442962646484375,-0.013602614402770996,-0.033225804567337036
1715439453688548000,6.523548095703125,0.029436111450195312,0.020779907703399658,-0.049185968935489655
1715439453698554000,6.53355419921875,0.076080322265625,0.059095919132232666,-0.07104796916246414
1715439453708560400,6.543560302734375,0.07487678527832031,0.06873530149459839,-0.0658748522400856
1715439453718566700,6.553566650390625,0.0690469741821289,0.05416673421859741,-0.018970951437950134
1715439453728572700,6.56357275390625,0.05864238739013672,0.001548469066619873,0.042752981185913086
1715439453738579000,6.573578857421875,0.010752677917480469,-0.05082958936691284,0.06854501366615295
1715439453748585200,6.583585205078125,-0.008131980895996094,-0.06008899211883545,0.021577373147010803
1715439453758591500,6.593591552734375,-0.007864952087402344,-0.022423624992370605,-0.08926530182361603
1715439453768597500,6.603597412109375,-0.07354068756103516,0.005301773548126221,-0.10368546843528748
1715439453778603800,6.613603759765625,-0.08167839050292969,0.03349626064300537,-0.15647822618484497
1715439453788610000,6.623610107421875,-0.09444141387939453,0.07148057222366333,-0.16231116652488708
1715439453798616000,6.633615966796875,-0.06936454772949219,0.08581829071044922,-0.10699962079524994
1715439453808622300,6.643622314453125,-0.02116680145263672,0.07638043165206909,-0.0430130660533905
1715439453818628600,6.653628662109375,-0.0019998550415039062,0.03853541612625122,0.029547959566116333
1715439453828635000,6.663634765625,0.03100109100341797,0.019940972328186035,0.020477324724197388
1715439453838641000,6.673640869140625,0.011713027954101562,0.052835941314697266,0.006840214133262634
1715439453848647200,6.683647216796875,-0.02136516571044922,0.056622445583343506,0.012882277369499207
1715439453858653400,6.6936533203125,-0.035086631774902344,0.06044644117355347,0.010341748595237732
1715439453868659500,6.703659423828125,-0.010953903198242188,0.04086500406265259,-0.005132213234901428
1715439453878665700,6.713665771484375,0.0033359527587890625,0.021605074405670166,0.004241690039634705
1715439453888672000,6.723672119140625,-0.03445148468017578,-0.011267900466918945,0.024062052369117737
1715439453898678300,6.73367822265625,-0.08103561401367188,-0.0011197924613952637,0.015327081084251404
1715439453908684300,6.743684326171875,-0.05624866485595703,-0.02369403839111328,-0.012079134583473206
1715439453918690600,6.753690673828125,0.01520538330078125,-0.026650846004486084,-0.059183090925216675
1715439453928696800,6.76369677734375,0.01956462860107422,0.008318603038787842,-0.07870006561279297
1715439453938702800,6.773702880859375,0.0238494873046875,0.02397608757019043,-0.05583219230175018
1715439453948709000,6.783709228515625,0.023386001586914062,0.03415191173553467,-0.03284001350402832
1715439453958715400,6.79371533203125,0.032355308532714844,0.010786235332489014,-0.018413454294204712
1715439453968721700,6.8037216796875,0.06473541259765625,0.006132304668426514,-0.06431593000888824
1715439453978727700,6.813727783203125,0.05894184112548828,0.024593830108642578,-0.11378540843725204
1715439453988734000,6.82373388671875,0.053277015686035156,0.04706090688705444,-0.13874313235282898
1715439453998740200,6.833740234375,0.024168014526367188,0.059546053409576416,-0.1203516498208046
1715439454008746200,6.843746337890625,0.00026798248291015625,0.05269050598144531,-0.08285900205373764
1715439454018752500,6.85375244140625,0.019158363342285156,0.03171783685684204,-0.036771342158317566
1715439454028758800,6.8637587890625,0.028377532958984375,0.0154876708984375,-0.026032641530036926
1715439454038765000,6.87376513671875,0.037512779235839844,0.03217506408691406,-0.03164011240005493
1715439454048771000,6.88377099609375,0.060669898986816406,0.010602295398712158,0.00902286171913147
1715439454058777300,6.89377734375,0.0693521499633789,-0.001925349235534668,0.06441418826580048
1715439454068783600,6.90378369140625,0.044928550720214844,-0.024296998977661133,0.06512860953807831
1715439454078789600,6.91378955078125,0.020885467529296875,-0.04682570695877075,0.031727492809295654
1715439454088796000,6.9237958984375,0.016084671020507812,-0.04155850410461426,-0.006995692849159241
1715439454098802200,6.93380224609375,0.020822525024414062,-0.008951365947723389,-0.05221495032310486
1715439454108808200,6.94380810546875,-0.0498504638671875,0.018108725547790527,-0.0850517749786377
1715439454118814500,6.953814453125,-0.11466312408447266,0.04985135793685913,-0.12128237634897232
1715439454128820500,6.963820556640625,-0.16432762145996094,0.07279634475708008,-0.1818770468235016
1715439454138826800,6.97382666015625,-0.21328258514404297,0.08310043811798096,-0.2060520201921463
1715439454148832800,6.983832763671875,-0.16738510131835938,0.03409159183502197,-0.2002638280391693
1715439454158839000,6.993839111328125,-0.07994842529296875,0.00618356466293335,-0.1899823099374771
1715439454168845000,7.003844970703125,-0.01757335662841797,-0.005892813205718994,-0.15641671419143677
1715439454178851300,7.013851318359375,0.024901390075683594,0.0016872882843017578,-0.0696081668138504
1715439454188857300,7.023857421875,0.0949106216430664,0.01876378059387207,0.019864775240421295
1715439454198863600,7.033863525390625,0.14496898651123047,0.025516986846923828,0.09930815547704697
1715439454208869600,7.04386962890625,0.1801443099975586,0.01678943634033203,0.16165058314800262
1715439454218876000,7.0538759765625,0.16776084899902344,0.020571410655975342,0.16533403098583221
1715439454228882000,7.0638818359375,0.06621360778808594,0.027648627758026123,0.0912589579820633
1715439454238888200,7.07388818359375,-0.028917312622070312,0.039103686809539795,0.00004295259714126587
1715439454248894200,7.083894287109375,-0.08485126495361328,0.03706580400466919,-0.048511192202568054
1715439454258900500,7.093900390625,-0.09283065795898438,0.021862685680389404,-0.03669185936450958
1715439454268906500,7.103906494140625,-0.10073566436767578,-0.011100351810455322,-0.04532626271247864
1715439454278912800,7.113912841796875,-0.10855865478515625,-0.028670430183410645,-0.050530046224594116
1715439454288918800,7.123918701171875,-0.07863140106201172,-0.02168583869934082,-0.061683669686317444
1715439454298925000,7.133925048828125,-0.03980541229248047,-0.004989266395568848,-0.06467419862747192
1715439454308931000,7.14393115234375,-0.02519989013671875,0.011838972568511963,-0.049182526767253876
1715439454318937300,7.153937255859375,-0.010848045349121094,0.014362335205078125,-0.03363117575645447
1715439454328943400,7.163943359375,-0.010875701904296875,0.0216522216796875,-0.013097710907459259
1715439454338949600,7.17394970703125,-0.010912895202636719,0.019401848316192627,-0.01080603152513504
1715439454348955600,7.18395556640625,0.04554462432861328,0.017187416553497314,-0.012429244816303253
1715439454358962000,7.1939619140625,0.09168624877929688,0.023911476135253906,-0.0325424000620842
1715439454368968000,7.203968017578125,0.08059883117675781,0.03942781686782837,-0.05212418735027313
1715439454378974200,7.21397412109375,0.0697469711303711,0.03994542360305786,-0.0710894912481308
1715439454388980200,7.223980224609375,0.05441474914550781,0.035234153270721436,-0.07573431730270386
1715439454398986500,7.233986572265625,0.006413459777832031,0.034899771213531494,-0.05195645987987518
1715439454408992800,7.24399267578125,-0.036055564880371094,0.015426337718963623,-0.037674129009246826
1715439454418998800,7.253998779296875,-0.07782268524169922,-0.008431196212768555,-0.004383668303489685
1715439454429005000,7.264005126953125,-0.0718545913696289,-0.007939159870147705,-0.01799524575471878
1715439454439011000,7.274010986328125,-0.0000858306884765625,0.011589109897613525,-0.040618933737277985
1715439454449017300,7.284017333984375,0.03284454345703125,0.04932171106338501,-0.04876725375652313
1715439454459023400,7.2940234375,0.060546875,0.05316072702407837,-0.04278434067964554
1715439454469029600,7.304029541015625,0.07840728759765625,0.03298240900039673,-0.027493096888065338
1715439454479035600,7.31403564453125,0.09600162506103516,-0.0013985037803649902,-0.007327161729335785
1715439454489042000,7.3240419921875,0.09921932220458984,-0.0026595592498779297,-0.020859964191913605
1715439454499048000,7.3340478515625,0.07419204711914062,0.0002925992012023926,-0.03529054671525955
1715439454509054200,7.34405419921875,0.007218360900878906,-0.010929107666015625,-0.026873715221881866
1715439454519060200,7.354060302734375,-0.06336212158203125,-0.01223897933959961,0.013342514634132385
1715439454529066500,7.36406640625,-0.0857229232788086,-0.00820457935333252,0.03325849771499634
1715439454539072500,7.374072509765625,-0.06537723541259766,-0.017958641052246094,0.08165581524372101
1715439454549078800,7.384078857421875,-0.026561737060546875,-0.03687489032745361,0.07394084334373474
1715439454559084800,7.394084716796875,-0.01192474365234375,-0.05108833312988281,0.02528645098209381
1715439454569091000,7.404091064453125,-0.0022611618041992188,-0.04633927345275879,-0.02517005056142807
1715439454579097000,7.41409716796875,0.011902809143066406,-0.022632598876953125,-0.05386495590209961
1715439454589103400,7.424103271484375,0.035221099853515625,0.005593776702880859,-0.133146271109581
1715439454599109400,7.434109375,0.0487213134765625,0.03356444835662842,-0.2019408792257309
1715439454609115600,7.44411572265625,0.12324142456054688,0.07039636373519897,-0.21481579542160034
1715439454619121700,7.45412158203125,0.14950275421142578,0.08257067203521729,-0.19186517596244812
1715439454629128000,7.4641279296875,0.16128826141357422,0.07489430904388428,-0.14215904474258423
1715439454639134000,7.474134033203125,0.15418720245361328,0.03745359182357788,-0.06928907334804535
1715439454649140200,7.48414013671875,0.08140087127685547,-0.005514025688171387,0.008507676422595978
1715439454659146200,7.494146240234375,0.0051822662353515625,-0.025050878524780273,0.04410110414028168
1715439454669152500,7.504152587890625,-0.04620647430419922,-0.0210304856300354,0.05712251365184784
1715439454679158500,7.514158447265625,-0.07321453094482422,-0.02639484405517578,0.05257238447666168
1715439454689164800,7.524164794921875,-0.09510326385498047,-0.03596729040145874,0.034711576998233795
1715439454699170800,7.5341708984375,-0.10727977752685547,-0.05397605895996094,0.03131170570850372
1715439454709177000,7.544177001953125,-0.10990715026855469,-0.04721790552139282,-0.011197559535503387
1715439454719183400,7.554183349609375,-0.09844493865966797,-0.03002333641052246,-0.10775978118181229
1715439454729189600,7.564189697265625,-0.0731191635131836,0.006752192974090576,-0.17329126596450806
1715439454739195600,7.574195556640625,-0.053030967712402344,0.030131876468658447,-0.13677263259887695
1715439454749202000,7.584201904296875,-0.019207000732421875,0.039718806743621826,-0.06937204301357269
1715439454759208200,7.594208251953125,0.018774986267089844,0.04433625936508179,-0.031468652188777924
1715439454769214200,7.604214111328125,0.046746253967285156,0.04836320877075195,0.007130831480026245
1715439454779220500,7.614220458984375,0.013092041015625,0.028058946132659912,0.03763455152511597
1715439454789226800,7.624226806640625,-0.024688720703125,-0.0017395615577697754,0.022538401186466217
1715439454799233000,7.63423291015625,-0.02889251708984375,0.0019188523292541504,-0.03805428743362427
1715439454809239000,7.644239013671875,-0.05188274383544922,0.0010154247283935547,-0.07851368188858032
1715439454819245300,7.654245361328125,-0.0980997085571289,0.014974057674407959,-0.08084572851657867
1715439454829251600,7.66425146484375,-0.1295013427734375,0.006085634231567383,-0.08859728276729584
1715439454839257600,7.674257568359375,-0.1086740493774414,-0.01104360818862915,-0.0597851388156414
1715439454849263900,7.684263916015625,-0.060006141662597656,-0.008229553699493408,-0.00946226716041565
1715439454859270100,7.694270263671875,-0.031012535095214844,0.0043624043464660645,0.02030143141746521
1715439454869276200,7.704276123046875,0.006899833679199219,0.01694732904434204,0.011621147394180298
1715439454879282400,7.714282470703125,0.030074119567871094,0.02440732717514038,-0.010722212493419647
1715439454889288700,7.724288818359375,0.0057773590087890625,0.02692967653274536,-0.02693718671798706
1715439454899295000,7.734294921875,-0.013402938842773438,-0.003756880760192871,-0.026998333632946014
1715439454909301000,7.744301025390625,0.03835582733154297,-0.015201389789581299,-0.048637960106134415
1715439454919307300,7.754307373046875,0.0939931869506836,-0.03167659044265747,-0.05886368826031685
1715439454929313500,7.7643134765625,0.05929756164550781,-0.015634655952453613,-0.07241179794073105
1715439454939319600,7.774319580078125,0.03933429718017578,-0.004875242710113525,-0.12300996482372284
1715439454949325800,7.784325927734375,0.09036636352539062,0.014921247959136963,-0.1554276943206787
1715439454959332000,7.79433203125,0.0699453353881836,0.020164430141448975,-0.1423434317111969
1715439454969338400,7.80433837890625,0.04517173767089844,0.0063863396644592285,-0.10209642350673676
1715439454979344400,7.814344482421875,0.06793212890625,-0.0075713396072387695,-0.05262629687786102
1715439454989350700,7.8243505859375,0.11392784118652344,-0.012702345848083496,-0.008081022650003433
1715439454999357000,7.83435693359375,0.10747051239013672,-0.00956737995147705,0.0038008615374565125
1715439455009363000,7.844363037109375,0.044677734375,-0.0024979710578918457,-0.006925560534000397
1715439455019369200,7.854369140625,0.020635604858398438,-0.005375325679779053,-0.021171536296606064
1715439455029375500,7.86437548828125,0.015832901000976562,0.010630011558532715,-0.0071639567613601685
1715439455039381800,7.8743818359375,-0.04540729522705078,0.021863877773284912,0.03436526656150818
1715439455049387800,7.8843876953125,-0.08210945129394531,0.014382600784301758,0.06541074812412262
1715439455059394000,7.89439404296875,-0.06174182891845703,0.0075383782386779785,0.07673993706703186
1715439455069400300,7.904400390625,-0.01819324493408203,0.015240788459777832,0.05844125524163246
1715439455079406300,7.91440625,-0.046029090881347656,0.023225247859954834,0.02429184690117836
1715439455089412600,7.92441259765625,-0.06873607635498047,0.03159064054489136,-0.0009840689599514008
1715439455099419000,7.9344189453125,-0.058150291442871094,0.016787409782409668,0.006420634686946869
1715439455109425200,7.944425048828125,-0.04777336120605469,-0.002066969871520996,0.008086856454610825
1715439455119431200,7.95443115234375,-0.051720619201660156,-0.006173610687255859,-0.004998143762350082
1715439455129437400,7.9644375,-0.1121530532836914,-0.00028079748153686523,0.019813768565654755
1715439455139443500,7.974443359375,-0.11986446380615234,0.025169074535369873,-0.0209583081305027
1715439455149449700,7.98444970703125,-0.019195556640625,0.03648310899734497,-0.0880134105682373
1715439455159455700,7.994455810546875,0.01860523223876953,-0.004388570785522461,-0.05542737618088722
