time,seconds_elapsed,z,y,x
1712268069208684500,0.1816845703125,0.13308048248291016,-0.31065118312835693,1.4299578666687012
1712268069218683400,0.191683349609375,0.12663555145263672,-0.25656795501708984,1.4636636972427368
1712268069228683000,0.20168310546875,0.09424114227294922,-0.1640033721923828,1.49728524684906
1712268069238682400,0.211682373046875,0.07660579681396484,-0.1311485767364502,1.5092830657958984
1712268069248681500,0.221681396484375,0.06725788116455078,-0.07835900783538818,1.5294159650802612
1712268069258680800,0.231680908203125,0.06517410278320312,-0.021451115608215332,1.5780036449432373
1712268069268680400,0.241680419921875,0.07979393005371094,0.01155233383178711,1.609362006187439
1712268069278679800,0.2516796875,0.113494873046875,0.01359248161315918,1.59479558467865
1712268069288679200,0.26167919921875,0.10410308837890625,-0.0275576114654541,1.5513763427734375
1712268069298678500,0.271678466796875,0.15700626373291016,-0.06642889976501465,1.465078353881836
1712268069308678000,0.281677978515625,0.17639541625976562,-0.09579658508300781,1.4313627481460571
1712268069318677200,0.29167724609375,0.14799118041992188,-0.11573457717895508,1.3719329833984375
1712268069328676600,0.301676513671875,0.12682533264160156,-0.09264302253723145,1.399080514907837
1712268069338676200,0.31167626953125,0.11764049530029297,-0.026478171348571777,1.4741544723510742
1712268069348675800,0.32167578125,0.14430713653564453,0.04180300235748291,1.5793170928955078
1712268069358675200,0.33167529296875,0.17567920684814453,0.08582019805908203,1.656836748123169
1712268069368674600,0.341674560546875,0.14718914031982422,0.07935869693756104,1.6525402069091797
1712268069378674000,0.351673828125,0.13319110870361328,0.027172207832336426,1.5724074840545654
1712268069388673300,0.36167333984375,0.12641239166259766,-0.03422212600708008,1.5578380823135376
1712268069398672600,0.371672607421875,0.0766439437866211,-0.06909525394439697,1.5182303190231323
1712268069408671700,0.381671630859375,0.05571937561035156,-0.08735263347625732,1.4554781913757324
1712268069418670800,0.3916708984375,-0.020261764526367188,-0.0146714448928833,1.4550273418426514
1712268069428670200,0.401670166015625,-0.05315113067626953,0.04569053649902344,1.499405860900879
1712268069438669300,0.41166943359375,-0.0836782455444336,0.09629464149475098,1.3743703365325928
1712268069448668400,0.42166845703125,-0.06525039672851562,0.10544931888580322,1.217270016670227
1712268069458667800,0.431667724609375,0.03970623016357422,0.0497814416885376,1.0679030418395996
1712268069468667000,0.4416669921875,0.1658029556274414,-0.021601557731628418,0.9278362989425659
1712268069478666000,0.451666015625,0.1951770782470703,-0.09834468364715576,0.8090941309928894
1712268069488665000,0.4616650390625,0.1681814193725586,-0.1110450029373169,0.7001016139984131
1712268069498664200,0.471664306640625,0.10608863830566406,-0.08886563777923584,0.6263489723205566
1712268069508663300,0.481663330078125,0.08771419525146484,-0.0635828971862793,0.5541611313819885
1712268069518662100,0.491662109375,0.10096549987792969,-0.0715705156326294,0.5345991849899292
1712268069528661200,0.5016611328125,0.08829879760742188,-0.09641432762145996,0.4702446758747101
1712268069538660400,0.511660400390625,0.06870365142822266,-0.1209409236907959,0.4524616003036499
1712268069548659200,0.5216591796875,-0.029854774475097656,-0.11334991455078125,0.3589424788951874
1712268069558658300,0.531658203125,-0.12841033935546875,-0.12890470027923584,0.3120003938674927
1712268069568657200,0.5416572265625,-0.13603591918945312,-0.13883435726165771,0.2838064432144165
1712268069578656000,0.551656005859375,-0.09825801849365234,-0.11431396007537842,0.25597095489501953
1712268069588654800,0.56165478515625,-0.07006168365478516,-0.11815750598907471,0.24462971091270447
1712268069598654000,0.571654052734375,-0.08733272552490234,-0.054880380630493164,0.2596098482608795
1712268069608652800,0.58165283203125,-0.11162185668945312,-0.025946378707885742,0.2718324661254883
1712268069618651400,0.5916513671875,-0.11175918579101562,0.023485541343688965,0.2614123225212097
1712268069628650200,0.601650146484375,-0.13314247131347656,0.025775790214538574,0.256970077753067
1712268069638649000,0.611649169921875,-0.12795448303222656,0.026916027069091797,0.22893822193145752
1712268069648647700,0.621647705078125,-0.09868335723876953,0.017859220504760742,0.20362091064453125
1712268069658646500,0.631646484375,-0.04774188995361328,0.017754197120666504,0.20789474248886108
1712268069668645000,0.64164501953125,0.00083160400390625,0.03914451599121094,0.22000843286514282
1712268069678644000,0.65164404296875,0.027944564819335938,0.07446825504302979,0.21834668517112732
1712268069688642600,0.661642578125,0.03365612030029297,0.07535266876220703,0.2106742262840271
1712268069698641400,0.671641357421875,0.07054805755615234,0.09267818927764893,0.17502641677856445
1712268069708640000,0.681639892578125,0.097930908203125,0.08085381984710693,0.14733916521072388
1712268069718638800,0.691638916015625,0.13012218475341797,0.06624495983123779,0.11888712644577026
1712268069728637400,0.701637451171875,0.1551036834716797,0.07781326770782471,0.08734026551246643
1712268069738636300,0.71163623046875,0.14416980743408203,0.10330522060394287,0.10090592503547668
1712268069748635000,0.721634765625,0.15005970001220703,0.14003980159759521,0.13757255673408508
1712268069758633700,0.7316337890625,0.11783409118652344,0.154058575630188,0.15551680326461792
1712268069768632600,0.741632568359375,0.05226325988769531,0.13586342334747314,0.15481913089752197
1712268069778631200,0.751631103515625,0.029870986938476562,0.10997271537780762,0.09461933374404907
1712268069788630000,0.761630126953125,0.0027437210083007812,0.08613359928131104,0.07070180773735046
1712268069798628900,0.77162890625,0.04030418395996094,0.05733788013458252,0.058686405420303345
1712268069808627500,0.78162744140625,0.027585983276367188,0.011819601058959961,0.058755457401275635
1712268069818626300,0.791626220703125,0.050665855407714844,0.012395977973937988,0.05199545621871948
1712268069828625000,0.801625,0.030515670776367188,-0.012746214866638184,0.05060607194900513
1712268069838623700,0.811623779296875,0.034081459045410156,-0.03200650215148926,0.023606419563293457
1712268069848622300,0.821622314453125,0.04691791534423828,-0.07630670070648193,0.012383103370666504
1712268069858621200,0.83162109375,0.006611824035644531,-0.08252215385437012,-0.03564289212226868
1712268069868620000,0.8416201171875,-0.05090808868408203,-0.07978165149688721,-0.02618253231048584
1712268069878618600,0.85161865234375,-0.10872745513916016,-0.05188751220703125,-0.06786930561065674
1712268069888617500,0.861617431640625,-0.09254169464111328,-0.020656108856201172,-0.02726435661315918
1712268069898616300,0.8716162109375,-0.037924766540527344,0.003067493438720703,-0.014181196689605713
1712268069908615000,0.881614990234375,-0.047771453857421875,0.011662960052490234,-0.0114668607711792
1712268069918613800,0.89161376953125,-0.02388763427734375,0.009527802467346191,-0.025617897510528564
1712268069928612600,0.901612548828125,0.04314708709716797,-0.007284998893737793,-0.025336384773254395
1712268069938611200,0.911611083984375,0.04075813293457031,-0.016968369483947754,-0.04904899001121521
1712268069948610000,0.921610107421875,0.06459617614746094,-0.0334857702255249,-0.0598812997341156
1712268069958608600,0.931608642578125,0.11229228973388672,-0.006616711616516113,-0.03420454263687134
1712268069968607500,0.941607421875,0.09296226501464844,-0.02532517910003662,-0.0300329327583313
1712268069978606300,0.9516064453125,0.07600975036621094,-0.00810253620147705,-0.03994619846343994
1712268069988605000,0.96160498046875,0.061499595642089844,0.0015909671783447266,-0.05438685417175293
1712268069998603800,0.971603759765625,0.05904865264892578,-0.01081395149230957,-0.05185890197753906
1712268070008602600,0.9816025390625,0.023031234741210938,-0.011090755462646484,-0.0346352756023407
1712268070018601200,0.991601318359375,0.03732776641845703,0.017256855964660645,-0.015228718519210815
1712268070028600000,1.00160009765625,-0.0009918212890625,0.019118666648864746,0.005944192409515381
1712268070038599000,1.011598876953125,-0.04399394989013672,0.0061626434326171875,-0.002064943313598633
1712268070048597500,1.021597412109375,-0.02236461639404297,0.014874935150146484,0.02330338954925537
1712268070058596000,1.03159619140625,0.01607990264892578,0.030781865119934082,0.05476349592208862
1712268070068595000,1.041594970703125,0.030663490295410156,0.010799884796142578,0.10369545221328735
1712268070078593500,1.051593505859375,0.023789405822753906,0.012298822402954102,0.09606790542602539
1712268070088592400,1.06159228515625,0.012186050415039062,0.0016827583312988281,0.08064872026443481
1712268070098591000,1.071591064453125,-0.028104782104492188,-0.016252517700195312,0.03855621814727783
1712268070108589800,1.08158984375,-0.058844566345214844,-0.0364762544631958,0.008596539497375488
1712268070118588400,1.09158837890625,-0.029783248901367188,-0.037380218505859375,-0.013681173324584961
1712268070128587300,1.101587158203125,-0.0031957626342773438,-0.025872349739074707,-0.011990785598754883
1712268070138586000,1.111586181640625,0.02096271514892578,0.014597535133361816,-0.010404586791992188
1712268070148584700,1.121584716796875,0.05708885192871094,0.02372300624847412,-0.008001625537872314
1712268070158583600,1.13158349609375,0.06447029113769531,0.042305827140808105,-0.009740889072418213
1712268070168582100,1.14158203125,0.07422351837158203,0.05362212657928467,0.02032625675201416
1712268070178581000,1.1515810546875,0.10320758819580078,0.05735146999359131,0.07187563180923462
1712268070188579600,1.16157958984375,0.10597705841064453,0.07025671005249023,0.11533093452453613
1712268070198578400,1.171578369140625,0.10891056060791016,0.08011734485626221,0.11969006061553955
1712268070208577300,1.181577392578125,0.06888484954833984,0.07739865779876709,0.11158061027526855
1712268070218576000,1.191575927734375,0.007378578186035156,0.08864152431488037,0.10359245538711548
1712268070228574700,1.20157470703125,-0.025302886962890625,0.11371970176696777,0.03827100992202759
1712268070238573600,1.211573486328125,-0.0698232650756836,0.13307130336761475,0.02152276039123535
1712268070248572200,1.221572265625,-0.05423164367675781,0.15829885005950928,0.0021419525146484375
1712268070258571000,1.231571044921875,0.02157306671142578,0.1386706829071045,-0.01532447338104248
1712268070268569900,1.24156982421875,0.1215066909790039,0.10861539840698242,-0.01881200075149536
1712268070278568400,1.251568359375,0.15683269500732422,0.08554732799530029,-0.02216184139251709
1712268070288567300,1.2615673828125,0.1585235595703125,0.053162336349487305,-0.026611924171447754
1712268070298566000,1.27156591796875,0.12164115905761719,0.02883744239807129,-0.07471108436584473
1712268070308564700,1.281564697265625,0.13228511810302734,-0.008665919303894043,-0.08924952149391174
1712268070318563300,1.291563232421875,0.1424417495727539,-0.02249622344970703,-0.09021502733230591
1712268070328562200,1.301562255859375,0.14974498748779297,-0.0629202127456665,-0.0925796627998352
1712268070338561000,1.31156103515625,0.16379070281982422,-0.0724341869354248,-0.06084251403808594
1712268070348559600,1.3215595703125,0.1607952117919922,-0.10674870014190674,-0.05794981122016907
1712268070358558500,1.331558349609375,0.10492324829101562,-0.14482784271240234,-0.05479934811592102
1712268070368557300,1.341557373046875,0.01775836944580078,-0.14381694793701172,-0.0847499668598175
1712268070378556200,1.35155615234375,-0.06467342376708984,-0.10197603702545166,-0.03980788588523865
1712268070388555300,1.36155517578125,-0.09910869598388672,-0.0628126859664917,0.023315906524658203
1712268070398554000,1.37155419921875,-0.1428976058959961,-0.052959322929382324,0.0460963249206543
1712268070408553200,1.38155322265625,-0.21278667449951172,-0.048717379570007324,0.0337824821472168
1712268070418552000,1.391552001953125,-0.2537269592285156,-0.021375298500061035,0.005985438823699951
1712268070428551200,1.40155126953125,-0.2633962631225586,0.0006278753280639648,0.003729879856109619
1712268070438550300,1.41155029296875,-0.2584848403930664,-0.002076387405395508,0.024056315422058105
1712268070448549000,1.421549072265625,-0.1959400177001953,0.02817976474761963,0.05990958213806152
1712268070458548500,1.431548583984375,-0.15954875946044922,0.03877711296081543,0.04383504390716553
1712268070468547600,1.441547607421875,-0.10146236419677734,0.022457242012023926,0.05102437734603882
1712268070478546700,1.451546630859375,-0.0840301513671875,0.030045390129089355,0.05271923542022705
1712268070488545800,1.4615458984375,-0.030637741088867188,0.027949213981628418,0.02526801824569702
1712268070498545000,1.471544921875,0.008376121520996094,0.04028642177581787,0.024249672889709473
1712268070508544000,1.4815439453125,0.06173133850097656,0.055087924003601074,0.004308938980102539
1712268070518543000,1.491543212890625,0.08634567260742188,0.053040385246276855,0.0016918182373046875
1712268070528542000,1.5015419921875,0.1060934066772461,0.036721229553222656,-0.018997550010681152
1712268070538541000,1.511541015625,0.11847496032714844,0.05439639091491699,-0.011688590049743652
1712268070548540200,1.5215400390625,0.10446643829345703,0.08641564846038818,0.013353228569030762
1712268070558539300,1.531539306640625,0.06425094604492188,0.09608149528503418,0.02922534942626953
1712268070568538400,1.541538330078125,0.05059528350830078,0.13080811500549316,0.06218266487121582
1712268070578537500,1.551537353515625,0.05154991149902344,0.16205072402954102,0.07775145769119263
1712268070588536600,1.56153662109375,0.0959014892578125,0.13462138175964355,0.03711456060409546
1712268070598535700,1.57153564453125,0.0852193832397461,0.07588851451873779,-0.0010849237442016602
1712268070608534800,1.58153466796875,0.11271381378173828,-0.0015361309051513672,-0.019302785396575928
1712268070618534000,1.591533935546875,0.11116600036621094,-0.008054971694946289,-0.03462088108062744
1712268070628533000,1.601532958984375,0.09019088745117188,-0.020591259002685547,-0.04903990030288696
1712268070638532000,1.611531982421875,0.09292125701904297,-0.008204221725463867,-0.014768242835998535
1712268070648531200,1.62153125,0.08121013641357422,-0.0003039836883544922,-0.004122018814086914
1712268070658530000,1.631530029296875,0.0670328140258789,-0.015942096710205078,0.006401181221008301
1712268070668529200,1.641529052734375,0.047921180725097656,-0.030883312225341797,-0.011566698551177979
1712268070678528000,1.651528076171875,0.0430145263671875,-0.03560638427734375,-0.007363796234130859
1712268070688527000,1.661527099609375,0.054701805114746094,-0.03712916374206543,-0.010174751281738281
1712268070698526000,1.67152587890625,-0.010332107543945312,-0.045359253883361816,0.01836252212524414
1712268070708524800,1.68152490234375,-0.039455413818359375,-0.010441780090332031,0.02048969268798828
1712268070718523600,1.691523681640625,-0.049297332763671875,0.00015151500701904297,0.012119472026824951
1712268070728522500,1.7015224609375,-0.018182754516601562,-0.0021588802337646484,0.004826486110687256
1712268070738521000,1.71152099609375,0.046637535095214844,-0.014591336250305176,0.010513365268707275
1712268070748520000,1.72152001953125,0.051657676696777344,-0.019894957542419434,0.013048171997070312
1712268070758518500,1.7315185546875,-0.005551338195800781,-0.023085474967956543,-0.003045380115509033
1712268070768517400,1.741517333984375,-0.07005977630615234,-0.02851235866546631,-0.003299117088317871
1712268070778516000,1.751515869140625,-0.07727241516113281,0.016962409019470215,-0.01709127426147461
1712268070788514800,1.761514892578125,-0.07735252380371094,0.05546081066131592,0.024363338947296143
1712268070798513400,1.771513427734375,0.0065593719482421875,0.04779207706451416,0.014461696147918701
1712268070808512300,1.78151220703125,0.02591228485107422,0.011046290397644043,-0.017327547073364258
1712268070818510800,1.7915107421875,0.016509056091308594,-0.02328670024871826,-0.03199034929275513
1712268070828509700,1.801509765625,0.019010543823242188,-0.009415745735168457,-0.04175758361816406
1712268070838508500,1.811508544921875,0.04304981231689453,-0.01954209804534912,-0.05596524477005005
1712268070848507100,1.821507080078125,0.03584480285644531,-0.046120643615722656,-0.03563201427459717
1712268070858506000,1.831506103515625,0.018911361694335938,-0.026475191116333008,-0.043848395347595215
1712268070868504800,1.8415048828125,0.023380279541015625,-0.030186772346496582,-0.02516496181488037
1712268070878503400,1.85150341796875,0.025356292724609375,-0.009479165077209473,-0.008745849132537842
1712268070888502300,1.861502197265625,0.022609710693359375,0.003828763961791992,-0.0023208260536193848
1712268070898501000,1.871501220703125,0.029499053955078125,-0.006985902786254883,0.01567399501800537
1712268070908499700,1.881499755859375,0.024492263793945312,0.020276546478271484,0.0211489200592041
1712268070918498600,1.89149853515625,0.014872550964355469,-0.00826120376586914,0.061953186988830566
1712268070928497200,1.9014970703125,0.00049591064453125,0.037464141845703125,0.061376869678497314
1712268070938496000,1.91149609375,-0.016153335571289062,0.010869383811950684,0.029184401035308838
1712268070948494800,1.921494873046875,0.0006628036499023438,-0.015433311462402344,0.0017646551132202148
1712268070958493400,1.931493408203125,0.014949798583984375,-0.04351365566253662,-0.02539241313934326
1712268070968492300,1.9414921875,0.038692474365234375,0.000764012336730957,-0.018664181232452393
1712268070978491100,1.9514912109375,0.0074176788330078125,0.03991520404815674,-0.028485894203186035
1712268070988489700,1.96148974609375,-0.0092315673828125,0.04649662971496582,-0.01882880926132202
1712268070998488600,1.971488525390625,-0.051980018615722656,0.025507450103759766,-0.03550618886947632
1712268071008487400,1.9814873046875,-0.0036497116088867188,0.03982436656951904,-0.03027033805847168
1712268071018486000,1.991486083984375,0.056647300720214844,0.042203664779663086,0.0036746859550476074
1712268071028484900,2.00148486328125,0.09289360046386719,0.03805983066558838,0.02532416582107544
1712268071038483500,2.0114833984375,0.0643777847290039,0.010551691055297852,0.03746384382247925
1712268071048482300,2.021482421875,0.07159996032714844,0.03171193599700928,0.03568452596664429
1712268071058481200,2.031481201171875,0.059615135192871094,0.0340268611907959,0.06733286380767822
1712268071068479700,2.041479736328125,0.011865615844726562,0.050301194190979004,0.05221593379974365
1712268071078478600,2.051478515625,0.03381061553955078,0.07503271102905273,0.043547213077545166
1712268071088477200,2.061477294921875,-0.0013074874877929688,0.10039472579956055,0.05544459819793701
1712268071098476000,2.07147607421875,-0.04082298278808594,0.09996938705444336,0.05002230405807495
1712268071108475000,2.081474853515625,-0.056255340576171875,0.09871482849121094,0.03308713436126709
1712268071118473500,2.091473388671875,-0.05023002624511719,0.08572781085968018,-0.009370028972625732
1712268071128472300,2.101472412109375,-0.0133209228515625,0.0616910457611084,-0.04595768451690674
1712268071138471000,2.111470947265625,0.03763103485107422,0.03431546688079834,-0.05548888444900513
1712268071148469800,2.1214697265625,0.1171712875366211,-0.004469037055969238,-0.0740416944026947
1712268071158468400,2.13146826171875,0.1055898666381836,-0.01641666889190674,-0.05597054958343506
1712268071168467200,2.14146728515625,0.12748336791992188,0.0005189180374145508,-0.07833537459373474
1712268071178465800,2.1514658203125,0.13985252380371094,-0.02353036403656006,-0.06471413373947144
1712268071188464600,2.161464599609375,0.16419696807861328,-0.04283583164215088,-0.04141718149185181
1712268071198463200,2.171463134765625,0.12621307373046875,-0.061791062355041504,-0.04670995473861694
1712268071208462000,2.181462158203125,0.10961627960205078,-0.10170590877532959,-0.07756155729293823
1712268071218460700,2.191460693359375,0.004059791564941406,-0.10663998126983643,-0.07341861724853516
1712268071228459500,2.20145947265625,-0.027452468872070312,-0.09413230419158936,-0.049343883991241455
1712268071238458400,2.211458251953125,-0.114044189453125,-0.05743300914764404,-0.013923227787017822
1712268071248457000,2.22145703125,-0.13811874389648438,-0.055133819580078125,0.048603951930999756
1712268071258455800,2.231455810546875,-0.12596797943115234,-0.05604958534240723,0.04624795913696289
1712268071268454700,2.24145458984375,-0.16873741149902344,-0.045226335525512695,0.06601768732070923
1712268071278453200,2.251453369140625,-0.1827068328857422,-0.060791730880737305,0.05125105381011963
1712268071288452000,2.2614521484375,-0.16330909729003906,-0.015612244606018066,0.05761730670928955
1712268071298450700,2.27145068359375,-0.11531734466552734,0.02795255184173584,0.0660926103591919
1712268071308449500,2.281449462890625,-0.10569190979003906,0.0430983304977417,0.08648413419723511
1712268071318448000,2.2914482421875,-0.06503963470458984,0.06824862957000732,0.061669349670410156
1712268071328447000,2.301447021484375,-0.00763702392578125,0.05019557476043701,0.035012125968933105
1712268071338445800,2.31144580078125,0.018039703369140625,0.029235005378723145,0.050554096698760986
1712268071348444400,2.3214443359375,0.02937030792236328,0.06326723098754883,0.034950196743011475
1712268071358443300,2.331443359375,0.06260490417480469,0.08382678031921387,0.047044217586517334
1712268071368442000,2.341442138671875,0.06743144989013672,0.06944024562835693,0.06802791357040405
1712268071378440700,2.351440673828125,0.026938438415527344,0.07571220397949219,0.08666491508483887
1712268071388439600,2.361439453125,0.06056404113769531,0.08001816272735596,0.09605157375335693
1712268071398438400,2.3714384765625,0.12276935577392578,0.08040082454681396,0.06441283226013184
1712268071408437000,2.38143701171875,0.16337108612060547,0.06912994384765625,0.05419546365737915
1712268071418435800,2.391435791015625,0.1968975067138672,0.07891416549682617,0.04859381914138794
1712268071428434700,2.4014345703125,0.21866607666015625,0.0877002477645874,0.04748988151550293
1712268071438433300,2.411433349609375,0.17363834381103516,0.08081865310668945,-0.018002688884735107
1712268071448432000,2.42143212890625,0.15134143829345703,0.056862831115722656,-0.04091989994049072
1712268071458431000,2.431430908203125,0.1168832778930664,0.03806483745574951,-0.03538167476654053
1712268071468429800,2.441429931640625,0.1181478500366211,0.031710028648376465,-0.03531914949417114
1712268071478428700,2.4514287109375,-0.01711273193359375,0.058855652809143066,-0.06297296285629272
1712268071488427500,2.461427490234375,-0.07337570190429688,0.064170241355896,-0.05583077669143677
1712268071498426600,2.471426513671875,-0.10564327239990234,0.06691992282867432,-0.039328694343566895
1712268071508425700,2.48142578125,-0.09476375579833984,0.04815375804901123,-0.03808701038360596
1712268071518424600,2.491424560546875,-0.0455169677734375,0.01983952522277832,-0.025882720947265625
1712268071528423700,2.501423583984375,-0.017871856689453125,-0.01040339469909668,-0.03825896978378296
1712268071538422800,2.5114228515625,-0.03832530975341797,-0.058808088302612305,-0.03841900825500488
1712268071548422000,2.521421875,-0.07113838195800781,-0.06258499622344971,-0.07554826140403748
1712268071558420700,2.531420654296875,-0.11875247955322266,-0.06460976600646973,-0.07068783044815063
1712268071568419800,2.541419921875,-0.013398170471191406,-0.024549484252929688,-0.03500235080718994
1712268071578419000,2.5514189453125,0.005832672119140625,-0.05133318901062012,-0.029938936233520508
1712268071588417800,2.561417724609375,0.008289337158203125,-0.07788264751434326,0.0008651018142700195
1712268071598417000,2.5714169921875,0.0010852813720703125,-0.060796380043029785,-0.01668846607208252
1712268071608416000,2.581416015625,-0.010993003845214844,-0.048099517822265625,-0.029389500617980957
1712268071618415000,2.5914150390625,-0.011200904846191406,-0.047120094299316406,-0.029271721839904785
1712268071628414200,2.601414306640625,-0.013966560363769531,-0.03108072280883789,-0.019234120845794678
1712268071638413300,2.611413330078125,-0.03347587585449219,0.05675959587097168,0.10078859329223633
1712268071648412400,2.621412353515625,-0.03361701965332031,0.11031556129455566,0.12883776426315308
1712268071658411300,2.631411376953125,-0.0022783279418945312,0.1147845983505249,0.10953587293624878
1712268071668410400,2.641410400390625,0.007897377014160156,0.07704722881317139,0.06260251998901367
1712268071678409500,2.651409423828125,0.030321121215820312,0.035735368728637695,0.02229684591293335
1712268071688408600,2.66140869140625,0.03122711181640625,0.03257453441619873,0.01797884702682495
1712268071698407400,2.671407470703125,0.06092071533203125,-0.01636683940887451,0.006592214107513428
1712268071708406500,2.681406494140625,0.05931282043457031,-0.021529197692871094,0.043707072734832764
1712268071718405600,2.691405517578125,0.07429695129394531,0.019570589065551758,0.06187182664871216
1712268071728404700,2.70140478515625,0.05804634094238281,0.04674184322357178,0.06358867883682251
1712268071738403800,2.71140380859375,0.04408454895019531,0.047797441482543945,0.06390976905822754
1712268071748402700,2.721402587890625,0.013273239135742188,0.03699660301208496,0.05575203895568848
1712268071758401800,2.73140185546875,-0.03923988342285156,0.009808897972106934,0.017686963081359863
1712268071768400600,2.741400634765625,-0.034516334533691406,0.0024318695068359375,-0.018904566764831543
1712268071778399500,2.7513994140625,-0.015623092651367188,0.010066986083984375,-0.0017952322959899902
1712268071788398300,2.7613984375,0.012841224670410156,0.00822436809539795,0.00789576768875122
1712268071798397200,2.771397216796875,0.015116691589355469,0.04903817176818848,0.040588319301605225
1712268071808396000,2.78139599609375,-0.008446693420410156,0.06886279582977295,0.07613909244537354
1712268071818395000,2.791394775390625,-0.031380653381347656,0.07670211791992188,0.10957103967666626
1712268071828393500,2.8013935546875,-0.058547019958496094,0.08955121040344238,0.08628904819488525
1712268071838392300,2.811392333984375,-0.09735965728759766,0.089141845703125,0.0645749568939209
1712268071848391000,2.821390869140625,-0.14094924926757812,0.05754232406616211,0.02868795394897461
1712268071858389800,2.8313896484375,-0.17998218536376953,0.033945560455322266,0.022617220878601074
1712268071868388400,2.841388427734375,-0.20489120483398438,0.011437416076660156,0.024006664752960205
1712268071878387200,2.85138720703125,-0.20375442504882812,-0.002510547637939453,0.04698604345321655
1712268071888386000,2.861385986328125,-0.19327640533447266,0.011225223541259766,0.03573954105377197
1712268071898384600,2.871384521484375,-0.21171188354492188,0.01874065399169922,0.04093724489212036
1712268071908383500,2.881383544921875,-0.2374134063720703,0.0002758502960205078,0.039077043533325195
1712268071918382000,2.891382080078125,-0.2153482437133789,-0.012833833694458008,0.04922950267791748
1712268071928380700,2.901380615234375,-0.24608325958251953,-0.05634737014770508,0.06137645244598389
1712268071938379500,2.911379638671875,-0.2962665557861328,-0.08910000324249268,0.03347647190093994
1712268071948378400,2.92137841796875,-0.39697837829589844,-0.14487528800964355,0.03275144100189209
1712268071958377000,2.931376953125,-0.5244541168212891,-0.2060924768447876,0.02092677354812622
1712268071968375800,2.941375732421875,-0.6719579696655273,-0.24790072441101074,0.03777766227722168
1712268071978374700,2.951374755859375,-0.7576074600219727,-0.2687281370162964,0.035700321197509766
1712268071988373200,2.961373291015625,-0.9395647048950195,-0.2630516290664673,0.0816110372543335
1712268071998372000,2.9713720703125,-1.0383825302124023,-0.273456335067749,0.1016998291015625
1712268072008371000,2.981370849609375,-1.1261005401611328,-0.4135078191757202,0.1310335397720337
1712268072018369500,2.99136962890625,-1.3107481002807617,-0.6055978536605835,0.0970657467842102
1712268072028368400,3.001368408203125,-1.8104276657104492,-0.9638645648956299,-0.08466005325317383
1712268072038367000,3.011366943359375,-2.6637115478515625,-1.3361093997955322,-0.085110604763031
1712268072048365800,3.02136572265625,-3.7006964683532715,-1.5963783264160156,0.07523226737976074
1712268072058364700,3.03136474609375,-4.6173272132873535,-1.648972988128662,0.27934354543685913
1712268072068363300,3.04136328125,-5.277709007263184,-1.406477689743042,0.44099074602127075
1712268072078362000,3.051362060546875,-5.565713405609131,-1.034745454788208,0.2506258487701416
1712268072088360700,3.061360595703125,-5.635219097137451,-0.771580696105957,0.10568970441818237
1712268072098359600,3.071359619140625,-5.5068511962890625,-0.9844158887863159,-0.1545460820198059
1712268072108358400,3.0813583984375,-5.019250392913818,-1.2782835960388184,-0.555713951587677
1712268072118357000,3.09135693359375,-4.453819751739502,-1.8280181884765625,-1.220188021659851
1712268072128355800,3.10135595703125,-4.203405380249023,-2.89143705368042,-1.9130463600158691
1712268072138354700,3.111354736328125,-4.440848350524902,-4.210608005523682,-2.2989695072174072
1712268072148353300,3.121353271484375,-4.308988094329834,-4.588301181793213,-2.405089855194092
1712268072158352100,3.13135205078125,-3.0530753135681152,-4.135008335113525,-2.3104658126831055
1712268072168350700,3.141350830078125,-0.9246683120727539,-2.968562126159668,-2.1689646244049072
1712268072178349600,3.151349609375,1.6904335021972656,-1.8540489673614502,-2.0195796489715576
1712268072188348400,3.161348388671875,3.519761085510254,-1.1341876983642578,-2.064303159713745
1712268072198347000,3.171346923828125,3.0632543563842773,-1.7849397659301758,-1.9838058948516846
1712268072208345900,3.181345947265625,1.7050466537475586,-2.42445707321167,-1.8964333534240723
1712268072218344700,3.1913447265625,0.5790491104125977,-2.6928532123565674,-1.6987566947937012
1712268072228343300,3.20134326171875,0.15531635284423828,-2.1507911682128906,-1.173802137374878
1712268072238342100,3.211342041015625,1.1178884506225586,-1.1026792526245117,-0.6483417749404907
1712268072248340700,3.2213408203125,2.647496223449707,-0.1363058090209961,-0.20682096481323242
1712268072258339600,3.231339599609375,3.459702491760254,0.03836345672607422,-0.13508760929107666
1712268072268338400,3.24133837890625,3.095376968383789,-0.2804985046386719,-0.08847355842590332
1712268072278337000,3.2513369140625,2.443225860595703,-0.47561168670654297,-0.2688637971878052
1712268072288335600,3.261335693359375,2.1827635765075684,-0.6278905868530273,-0.5687800645828247
1712268072298334500,3.27133447265625,2.000530242919922,-0.746739387512207,-0.8868616819381714
1712268072308333000,3.2813330078125,1.9458026885986328,-0.7330398559570312,-0.9780495166778564
1712268072318332000,3.291331787109375,1.8696751594543457,-0.8571987152099609,-1.0075342655181885
1712268072328330500,3.30133056640625,1.5765228271484375,-1.0103535652160645,-0.9521085023880005
1712268072338329300,3.311329345703125,1.192333698272705,-1.0316290855407715,-0.7568870782852173
1712268072348328000,3.321327880859375,1.2811908721923828,-0.956489086151123,-0.4780822992324829
1712268072358326800,3.331326904296875,1.5712237358093262,-0.7306180000305176,-0.07404351234436035
1712268072368325600,3.34132568359375,2.0572032928466797,-0.517484188079834,0.25297510623931885
1712268072378324200,3.35132421875,2.6565909385681152,-0.40685606002807617,0.3344724178314209
1712268072388323000,3.361322998046875,3.107654571533203,-0.4901599884033203,0.2718515396118164
1712268072398322000,3.371322021484375,3.446800708770752,-0.6062264442443848,0.1384599208831787
1712268072408320500,3.381320556640625,3.799313545227051,-0.5762996673583984,0.17781323194503784
1712268072418319400,3.3913193359375,3.8466739654541016,-0.5240283012390137,0.13629096746444702
1712268072428318200,3.401318115234375,3.2924957275390625,-0.6235127449035645,0.403805673122406
1712268072438316800,3.41131689453125,2.7071871757507324,-0.4697556495666504,0.5034223794937134
1712268072448315600,3.421315673828125,2.5821361541748047,-0.2802548408508301,0.5937041640281677
1712268072458314200,3.431314208984375,2.781747817993164,-0.1257939338684082,0.7287211418151855
1712268072468313000,3.44131298828125,3.1624927520751953,0.05861997604370117,0.8579864501953125
1712268072478312000,3.45131201171875,3.6277523040771484,0.16499042510986328,0.9256646633148193
1712268072488310500,3.461310546875,3.481602668762207,0.051167964935302734,0.8641057014465332
1712268072498309400,3.471309326171875,2.933046340942383,-0.12647676467895508,0.7418621778488159
1712268072508308200,3.48130810546875,2.4196739196777344,-0.19874811172485352,0.6385011672973633
1712268072518306800,3.491306884765625,2.5428943634033203,-0.17069387435913086,0.5307855606079102
1712268072528305700,3.5013056640625,2.5561203956604004,-0.14307069778442383,0.6117597222328186
1712268072538304500,3.511304443359375,2.3879647254943848,-0.22420454025268555,0.39124372601509094
1712268072548303000,3.52130322265625,2.241708755493164,-0.39786767959594727,0.2950950264930725
1712268072558302000,3.531302001953125,2.520514488220215,-0.4069371223449707,0.34540677070617676
1712268072568300800,3.54130078125,2.723599910736084,-0.30437135696411133,0.42977434396743774
1712268072578299600,3.551299560546875,2.7731404304504395,-0.17126989364624023,0.5902406573295593
1712268072588298500,3.561298583984375,3.0583314895629883,0.03607368469238281,0.7378063201904297
1712268072598297600,3.571297607421875,3.2523574829101562,0.19788646697998047,0.8008161783218384
1712268072608296400,3.58129638671875,3.034914016723633,0.16172027587890625,0.7408443689346313
1712268072618295300,3.59129541015625,2.518601417541504,0.016341209411621094,0.6647236943244934
1712268072628294100,3.601294189453125,2.0144100189208984,-0.0770864486694336,0.5081954002380371
1712268072638293000,3.61129296875,1.5851936340332031,-0.2712745666503906,0.34807315468788147
1712268072648291800,3.621291748046875,0.9957342147827148,-0.4441061019897461,0.22292394936084747
1712268072658290700,3.631290771484375,0.4778785705566406,-0.5188360214233398,0.03159382939338684
1712268072668289500,3.64128955078125,-0.06859397888183594,-0.7268867492675781,-0.09524500370025635
1712268072678779600,3.651779541015625,-0.33646202087402344,-0.7881293296813965,0.04389691352844238
1712268072688778500,3.661778564453125,0.0900259017944336,-0.36150550842285156,0.4549436867237091
1712268072698777300,3.67177734375,0.9571924209594727,0.2927207946777344,0.7895979881286621
1712268072708776200,3.681776123046875,1.6353254318237305,0.765228271484375,1.0127314329147339
1712268072718775000,3.691775146484375,1.668736457824707,0.7992753982543945,1.0747345685958862
1712268072728774000,3.70177392578125,1.0229663848876953,0.40459227561950684,0.9512417316436768
1712268072738773000,3.71177294921875,-0.09765338897705078,-0.24801039695739746,0.682924211025238
1712268072748771800,3.721771728515625,-1.6120195388793945,-1.08359956741333,0.1587677150964737
1712268072758770700,3.731770751953125,-2.7897634506225586,-1.623488426208496,-0.25837641954421997
1712268072768769500,3.74176953125,-3.1996965408325195,-1.5800669193267822,-0.5273158550262451
1712268072778768400,3.751768310546875,-2.6344804763793945,-1.050335168838501,-0.6648714542388916
1712268072788767200,3.761767333984375,-1.6079959869384766,-0.5583701133728027,-0.6372119784355164
1712268072798766000,3.77176611328125,-0.5654325485229492,-0.34649658203125,-0.5620521903038025
1712268072808765000,3.781764892578125,0.07189273834228516,-0.407167911529541,-0.6320948600769043
1712268072818763800,3.791763671875,0.06517314910888672,-0.7186368703842163,-0.7861072421073914
1712268072828762600,3.8017626953125,-0.2614459991455078,-1.052198052406311,-0.8540617227554321
1712268072838761500,3.811761474609375,-0.8142290115356445,-1.2152658700942993,-0.883535623550415
1712268072848760300,3.82176025390625,-1.5912418365478516,-1.3918676376342773,-0.9399466514587402
1712268072858759000,3.831759033203125,-2.299036979675293,-1.4014701843261719,-0.8508853912353516
1712268072868757800,3.8417578125,-2.323122501373291,-1.0061750411987305,-0.704275369644165
1712268072878756600,3.851756591796875,-1.7888593673706055,-0.47560572624206543,-0.42957568168640137
1712268072888755200,3.861755126953125,-1.0439882278442383,-0.129688560962677,-0.24333345890045166
1712268072898754000,3.871754150390625,-0.34444236755371094,-0.038735270500183105,-0.22170501947402954
1712268072908752600,3.881752685546875,0.14552783966064453,-0.09848016500473022,-0.3522265553474426
1712268072918751500,3.89175146484375,0.3119220733642578,-0.22716134786605835,-0.48954254388809204
1712268072928750000,3.90175,0.03677845001220703,-0.363262414932251,-0.5857157111167908
1712268072938749000,3.9117490234375,-0.3110532760620117,-0.46260201930999756,-0.6703637838363647
1712268072948747500,3.92174755859375,-0.8423118591308594,-0.5423007011413574,-0.7241209745407104
1712268072958746000,3.93174609375,-1.3519744873046875,-0.676024854183197,-0.7339093089103699
1712268072968745000,3.941744873046875,-1.4610223770141602,-0.6401288509368896,-0.6224915385246277
1712268072978743800,3.951743896484375,-1.1927423477172852,-0.38950681686401367,-0.501847505569458
1712268072988742700,3.96174267578125,-0.7223968505859375,-0.06901991367340088,-0.4358241558074951
1712268072998741200,3.9717412109375,-0.30867862701416016,0.08057606220245361,-0.3591034412384033
1712268073008740000,3.981739990234375,-0.16051006317138672,0.04609084129333496,-0.3264274597167969
1712268073018739000,3.991739013671875,-0.2963104248046875,-0.08880853652954102,-0.2335416078567505
1712268073028737500,4.001737548828125,-0.663844108581543,-0.25492942333221436,-0.25406479835510254
1712268073038736400,4.011736328125,-0.9743490219116211,-0.405987024307251,-0.3018547296524048
1712268073048735000,4.02173486328125,-1.1877641677856445,-0.22910654544830322,-0.22748279571533203
1712268073058733800,4.03173388671875,-1.0695838928222656,0.052747249603271484,-0.1317911148071289
1712268073068732400,4.041732421875,-0.8283462524414062,0.2330608367919922,0.003466963768005371
1712268073078731300,4.051731201171875,-0.6209888458251953,0.2740001678466797,0.015233039855957031
1712268073088730000,4.061730224609375,-0.5023365020751953,0.17120718955993652,0.01717209815979004
1712268073098728700,4.071728759765625,-0.35266780853271484,0.07212948799133301,0.015591263771057129
1712268073108727600,4.0817275390625,-0.3613395690917969,0.02253890037536621,0.01637136936187744
1712268073118726400,4.091726318359375,-0.42549705505371094,-0.011046171188354492,-0.039699435234069824
1712268073128725200,4.101725341796875,-0.5018777847290039,-0.007181882858276367,-0.09150040149688721
1712268073138723800,4.111723876953125,-0.5373430252075195,-0.04052114486694336,-0.11338543891906738
1712268073148722700,4.12172265625,-0.5914068222045898,-0.029853343963623047,-0.12225663661956787
1712268073158721300,4.13172119140625,-0.5441551208496094,-0.03308677673339844,-0.07830071449279785
1712268073168720100,4.14172021484375,-0.31661510467529297,0.005246400833129883,0.013357043266296387
1712268073178718700,4.15171875,-0.09335613250732422,0.03491091728210449,0.12097692489624023
1712268073188717600,4.161717529296875,0.05787467956542969,0.06599855422973633,0.21109509468078613
1712268073198716200,4.171716064453125,0.10043525695800781,0.07520914077758789,0.2571049928665161
1712268073208715000,4.181715087890625,0.0029087066650390625,0.06714820861816406,0.23032653331756592
1712268073218713900,4.1917138671875,-0.1366891860961914,0.006193399429321289,0.16719627380371094
1712268073228712700,4.201712646484375,-0.2176799774169922,0.009784221649169922,0.16952288150787354
1712268073238711300,4.211711181640625,-0.25670528411865234,0.07152938842773438,0.17525362968444824
1712268073248710100,4.221710205078125,-0.2728157043457031,0.1268606185913086,0.18596065044403076
1712268073258709000,4.231708984375,-0.2299356460571289,0.15615367889404297,0.22772979736328125
1712268073268707600,4.24170751953125,-0.2115478515625,0.16580772399902344,0.23493528366088867
1712268073278706200,4.2517060546875,-0.2530708312988281,0.14711689949035645,0.19925177097320557
1712268073288705000,4.261705078125,-0.2607583999633789,0.11556363105773926,0.13908112049102783
1712268073298704000,4.271703857421875,-0.1718273162841797,0.12029409408569336,0.07832741737365723
1712268073308702500,4.281702392578125,-0.04017925262451172,0.08106589317321777,0.07102179527282715
1712268073318701000,4.291701171875,0.027318954467773438,0.059706926345825195,0.00028502941131591797
1712268073328700000,4.301699951171875,0.06599903106689453,0.05365920066833496,-0.04716980457305908
1712268073338698500,4.311698486328125,0.11100006103515625,0.08914971351623535,0.0031120777130126953
1712268073348697300,4.321697265625,0.1516733169555664,0.15488600730895996,0.08285081386566162
1712268073358696200,4.3316962890625,0.21578693389892578,0.2124316692352295,0.15983688831329346
1712268073368694800,4.34169482421875,0.23554229736328125,0.23920774459838867,0.165663480758667
1712268073378693600,4.351693603515625,0.2414865493774414,0.21249938011169434,0.1407085657119751
1712268073388692200,4.361692138671875,0.21431446075439453,0.18044662475585938,0.08795368671417236
1712268073398691000,4.371691162109375,0.09223556518554688,0.02944469451904297,0.003296971321105957
1712268073408690000,4.38168994140625,-0.1573810577392578,-0.07005012035369873,-0.1382443904876709
1712268073418688500,4.3916884765625,-0.2775764465332031,-0.05961203575134277,-0.1390671730041504
1712268073428687400,4.401687255859375,-0.1913433074951172,0.02019333839416504,-0.07668626308441162
1712268073438686000,4.41168603515625,-0.13584232330322266,0.052835702896118164,-0.01849973201751709
1712268073448684800,4.421684814453125,-0.19774436950683594,0.012090682983398438,0.01985609531402588
1712268073458683400,4.431683349609375,-0.27230072021484375,0.006474494934082031,-0.010872602462768555
1712268073468682200,4.44168212890625,-0.18049907684326172,0.02569723129272461,0.022679805755615234
1712268073478681000,4.45168115234375,-0.013678550720214844,0.0378645658493042,0.049016475677490234
1712268073488679700,4.4616796875,0.04640388488769531,0.03273606300354004,0.02011847496032715
1712268073498678500,4.471678466796875,0.07462024688720703,0.03171396255493164,0.021518826484680176
1712268073508677400,4.481677490234375,0.0789480209350586,0.02074742317199707,0.01689600944519043
1712268073518676200,4.49167626953125,0.09362983703613281,0.024634838104248047,-0.009273409843444824
1712268073528674800,4.5016748046875,0.11213874816894531,-0.023086071014404297,-0.04788696765899658
1712268073538673700,4.511673583984375,0.16623878479003906,-0.04048466682434082,-0.0490870475769043
1712268073548672300,4.52167236328125,0.30906009674072266,0.06937098503112793,-0.00793921947479248
1712268073558671000,4.531671142578125,0.43651771545410156,0.23310518264770508,0.0545046329498291
1712268073568669700,4.541669677734375,0.48148155212402344,0.27722275257110596,0.07569873332977295
1712268073578668500,4.55166845703125,0.4067230224609375,0.21687853336334229,0.09506702423095703
1712268073588667400,4.56166748046875,0.25182247161865234,0.10997343063354492,0.06442272663116455
1712268073598666200,4.571666259765625,0.10948848724365234,0.03549361228942871,0.04261040687561035
1712268073608665000,4.5816650390625,0.008225440979003906,0.047261953353881836,0.0007643699645996094
1712268073618664000,4.591663818359375,-0.04919242858886719,0.06843793392181396,-0.01584601402282715
1712268073628662800,4.601662841796875,-0.045246124267578125,0.08792352676391602,0.06099534034729004
1712268073638662000,4.611661865234375,0.09051322937011719,0.1343449354171753,0.10728812217712402
1712268073648660700,4.62166064453125,0.1219644546508789,0.13045227527618408,0.10585558414459229
1712268073658659800,4.631659912109375,0.07593250274658203,0.07611143589019775,0.0350344181060791
1712268073668659000,4.641658935546875,0.024199485778808594,0.014225482940673828,-0.047051429748535156
1712268073678657800,4.65165771484375,0.04308128356933594,-0.005835175514221191,-0.09236955642700195
1712268073688657000,4.661656982421875,0.05790138244628906,0.015115499496459961,-0.08760297298431396
1712268073698656000,4.671656005859375,0.017622947692871094,0.03579390048980713,-0.02691829204559326
1712268073708655000,4.681655029296875,-0.040261268615722656,0.06806588172912598,0.05198097229003906
1712268073718654200,4.691654296875,-0.10886859893798828,0.08413040637969971,0.07095682621002197
1712268073728653300,4.7016533203125,-0.14750099182128906,0.057810306549072266,0.04654562473297119
1712268073738652400,4.71165234375,-0.12224864959716797,0.06264305114746094,0.022128939628601074
1712268073748651500,4.721651611328125,-0.0037794113159179688,0.0588984489440918,-0.0025587081909179688
1712268073758650600,4.731650634765625,0.057686805725097656,0.061800360679626465,-0.05176138877868652
1712268073768649700,4.741649658203125,0.057785987854003906,-0.0046204328536987305,-0.13336628675460815
1712268073778648800,4.75164892578125,0.04684638977050781,-0.07402729988098145,-0.21305638551712036
1712268073788648000,4.76164794921875,0.051090240478515625,-0.07423806190490723,-0.22817713022232056
1712268073798647000,4.77164697265625,-0.01778125762939453,-0.05552852153778076,-0.2912694215774536
1712268073808646000,4.78164599609375,-0.1026153564453125,-0.05547165870666504,-0.3433178663253784
1712268073818645000,4.79164501953125,-0.08125114440917969,-0.07848811149597168,-0.23440062999725342
1712268073828644000,4.80164404296875,-0.054558753967285156,-0.020458102226257324,-0.10976505279541016
1712268073838643200,4.811643310546875,-0.020287513732910156,0.0878605842590332,0.00019812583923339844
1712268073848642300,4.821642333984375,-0.07690811157226562,0.20142734050750732,0.1331923007965088
1712268073858641400,4.831641357421875,-0.11479473114013672,0.2708415985107422,0.23911452293395996
1712268073868640500,4.841640625,-0.08626365661621094,0.27068281173706055,0.2891591787338257
1712268073878639600,4.8516396484375,-0.043984413146972656,0.2101433277130127,0.22869372367858887
1712268073888638700,4.861638671875,-0.01902008056640625,0.12918663024902344,0.17562663555145264
1712268073898637800,4.871637939453125,0.015069961547851562,0.08509230613708496,0.1030416488647461
1712268073908636700,4.88163671875,0.03966045379638672,0.08849215507507324,0.01629352569580078
1712268073918635800,4.8916357421875,0.05983543395996094,0.10026049613952637,-0.0639117956161499
1712268073928634600,4.901634521484375,0.10928058624267578,0.13194799423217773,-0.08779823780059814
1712268073938633500,4.911633544921875,0.1256570816040039,0.12156796455383301,-0.11732852458953857
1712268073948632300,4.92163232421875,0.12999439239501953,0.10601305961608887,-0.0952606201171875
1712268073958631200,4.931631103515625,0.02563953399658203,0.017847299575805664,-0.13110792636871338
1712268073968629800,4.941629638671875,-0.07334518432617188,-0.0212094783782959,-0.12875187397003174
1712268073978628600,4.951628662109375,-0.11223602294921875,-0.03109288215637207,-0.06679773330688477
1712268073988627500,4.96162744140625,-0.061824798583984375,0.018944740295410156,-0.005392551422119141
1712268073998626000,4.9716259765625,0.007092475891113281,0.10767054557800293,0.044371724128723145
1712268074008625000,4.981625,0.1291351318359375,0.10494327545166016,0.09897422790527344
1712268074018623500,4.99162353515625,0.15174007415771484,0.08999013900756836,0.1450207233428955
1712268074028622300,5.001622314453125,0.09675121307373047,0.06160736083984375,0.14872121810913086
1712268074038621200,5.01162109375,0.04543590545654297,0.07730317115783691,0.1396881341934204
1712268074048619800,5.021619873046875,0.01663494110107422,0.05859541893005371,0.12416386604309082
1712268074058618600,5.03161865234375,-0.0076313018798828125,0.009122848510742188,0.11710953712463379
1712268074068617200,5.0416171875,-0.020668983459472656,-0.05775260925292969,0.05990266799926758
1712268074078616000,5.051615966796875,-0.08727550506591797,-0.09621548652648926,-0.006238698959350586
1712268074088615000,5.061614990234375,-0.1857471466064453,-0.10177159309387207,-0.0819246768951416
1712268074098613500,5.071613525390625,-0.18181228637695312,-0.06719803810119629,-0.024905800819396973
1712268074108612400,5.0816123046875,-0.10378742218017578,-0.004956483840942383,0.07648110389709473
1712268074118611200,5.091611083984375,-0.054268836975097656,0.050038814544677734,0.15963006019592285
1712268074128609800,5.10160986328125,-0.03083324432373047,0.06843924522399902,0.17741048336029053
1712268074138608600,5.111608642578125,-0.03377246856689453,0.06270360946655273,0.14548134803771973
1712268074148607200,5.121607177734375,-0.010499000549316406,0.05236244201660156,0.12372744083404541
1712268074158606000,5.131606201171875,0.03439140319824219,0.05877971649169922,0.07755374908447266
1712268074168605000,5.14160498046875,0.06763935089111328,0.05263972282409668,0.022785305976867676
1712268074178603500,5.151603515625,0.07012653350830078,0.03813815116882324,0.005582571029663086
1712268074188602400,5.161602294921875,0.07276153564453125,0.0397036075592041,0.029109477996826172
1712268074198601000,5.17160107421875,0.08488655090332031,0.08467578887939453,0.05516815185546875
1712268074208599800,5.181599853515625,0.05054187774658203,0.1673266887664795,0.11186432838439941
1712268074218598700,5.1915986328125,0.0833892822265625,0.21312379837036133,0.12586462497711182
1712268074228597500,5.201597412109375,0.12137031555175781,0.18800687789916992,0.1350080966949463
1712268074238596000,5.21159619140625,0.11412811279296875,0.1931166648864746,0.14132142066955566
1712268074248595000,5.221594970703125,0.06418514251708984,0.18234896659851074,0.13054358959197998
1712268074258593800,5.23159375,0.08644580841064453,0.1894984245300293,0.0976095199584961
1712268074268592400,5.24159228515625,0.15434551239013672,0.17682933807373047,0.07438421249389648
1712268074278591200,5.25159130859375,0.16463661193847656,0.14270520210266113,0.0018454790115356445
1712268074288589800,5.26158984375,0.16227340698242188,0.06619024276733398,-0.07423567771911621
1712268074298588700,5.271588623046875,0.14704036712646484,0.05828046798706055,-0.04361152648925781
1712268074308587300,5.281587158203125,0.16231250762939453,0.030377626419067383,-0.04945170879364014
1712268074318586000,5.291586181640625,0.15325260162353516,0.0012454986572265625,-0.044830322265625
1712268074328585000,5.3015849609375,0.20855712890625,0.011260986328125,-0.058742523193359375
1712268074338583600,5.31158349609375,0.23515892028808594,0.02604365348815918,-0.03685760498046875
1712268074348582400,5.32158251953125,0.2236471176147461,0.021005868911743164,-0.022411465644836426
1712268074358581000,5.3315810546875,0.17177104949951172,-0.018677473068237305,-0.05395221710205078
1712268074368579800,5.341579833984375,0.05551433563232422,-0.049573659896850586,-0.08361709117889404
1712268074378578400,5.351578369140625,0.032090187072753906,-0.0928487777709961,-0.07936739921569824
1712268074388577300,5.361577392578125,0.00739288330078125,-0.07855582237243652,-0.040723323822021484
1712268074398575900,5.371575927734375,0.008518218994140625,-0.08242392539978027,-0.03020012378692627
1712268074408574700,5.38157470703125,0.009878158569335938,-0.10381579399108887,-0.030521035194396973
1712268074418573300,5.3915732421875,0.08876895904541016,-0.09135246276855469,-0.045821189880371094
1712268074428572200,5.401572265625,0.2053813934326172,-0.0728445053100586,-0.11185932159423828
1712268074438570800,5.41157080078125,0.27884483337402344,-0.04221177101135254,-0.20448839664459229
1712268074448569600,5.421569580078125,0.26511096954345703,-0.06699252128601074,-0.2612149715423584
1712268074458568200,5.431568115234375,0.0006608963012695312,-0.16518855094909668,-0.28849923610687256
1712268074468567000,5.441567138671875,-0.33936500549316406,-0.22061538696289062,-0.2532445192337036
1712268074478566000,5.45156591796875,-0.5988092422485352,-0.19588160514831543,-0.17362475395202637
1712268074488564500,5.461564453125,-0.7704172134399414,-0.11179304122924805,-0.14078855514526367
1712268074498563300,5.471563232421875,-0.7195920944213867,-0.04211711883544922,-0.1012415885925293
1712268074508562200,5.481562255859375,-0.46695995330810547,-0.016171932220458984,-0.0329744815826416
1712268074518560800,5.491560791015625,-0.1895599365234375,-0.050543785095214844,0.008738160133361816
1712268074528559600,5.5015595703125,-0.029265403747558594,-0.04495120048522949,0.09418642520904541
1712268074538558200,5.51155810546875,0.08179569244384766,-0.0076563358306884766,0.14279627799987793
1712268074548557000,5.52155712890625,0.05030345916748047,0.03846263885498047,0.14790964126586914
1712268074558556000,5.531555908203125,0.06621265411376953,0.08462142944335938,0.23621630668640137
1712268074568554500,5.541554443359375,0.0796060562133789,0.09505891799926758,0.2806212902069092
1712268074578553300,5.55155322265625,0.16038990020751953,0.1478714942932129,0.27207040786743164
1712268074588552200,5.56155224609375,0.0916891098022461,0.171311616897583,0.2528562545776367
1712268074598550800,5.57155078125,0.006436347961425781,0.14333748817443848,0.17832767963409424
1712268074608549600,5.581549560546875,0.026210784912109375,0.07468986511230469,0.11160707473754883
1712268074618548500,5.591548583984375,0.03621387481689453,0.05185651779174805,0.09205949306488037
1712268074628547000,5.601547119140625,0.02494049072265625,0.04286336898803711,0.07292282581329346
1712268074638546000,5.6115458984375,0.024171829223632812,0.017493724822998047,0.08880925178527832
1712268074648544500,5.62154443359375,-0.015521049499511719,-0.006422758102416992,0.0916135311126709
1712268074658543400,5.63154345703125,-0.07149887084960938,0.014560699462890625,0.08796918392181396
1712268074668542200,5.641542236328125,-0.132965087890625,-0.07266688346862793,0.07446229457855225
1712268074678540800,5.651540771484375,-0.2541522979736328,-0.15479397773742676,0.0967332124710083
1712268074688539600,5.66153955078125,-0.6768569946289062,-0.24837732315063477,0.09212684631347656
1712268074698538500,5.67153857421875,-1.3593149185180664,-0.4061267375946045,0.10054552555084229
1712268074708537300,5.681537353515625,-2.153182029724121,-0.7388989925384521,-0.005693197250366211
1712268074718536400,5.691536376953125,-3.333906650543213,-1.0263407230377197,-0.04434025287628174
1712268074728535300,5.701535400390625,-4.7757391929626465,-1.3213558197021484,-0.05055439472198486
1712268074738534400,5.711534423828125,-6.39057731628418,-1.659348726272583,-0.0350116491317749
1712268074748533200,5.721533203125,-7.850883483886719,-2.0916085243225098,-0.08190631866455078
1712268074758532400,5.731532470703125,-9.482990264892578,-3.0254669189453125,-0.1589062213897705
1712268074768531500,5.741531494140625,-10.133676528930664,-4.054764270782471,-0.2958049774169922
1712268074778530300,5.7515302734375,-9.164225578308105,-4.266404628753662,-0.8101494908332825
1712268074788529400,5.761529296875,-7.014044761657715,-4.172362327575684,-1.3193107843399048
1712268074798528500,5.771528564453125,-4.5394487380981445,-4.109441757202148,-1.9728376865386963
1712268074808527600,5.781527587890625,-2.463332176208496,-4.364809513092041,-2.624762535095215
1712268074818526500,5.7915263671875,-1.3612785339355469,-4.799495697021484,-2.885316848754883
1712268074828525600,5.801525634765625,-0.8791055679321289,-5.311105728149414,-2.9310030937194824
1712268074838524700,5.811524658203125,-0.2861461639404297,-4.821150779724121,-2.5716700553894043
1712268074848523800,5.821523681640625,0.41259765625,-3.7178189754486084,-1.3778431415557861
1712268074858523000,5.83152294921875,2.5057458877563477,-1.516573429107666,0.16174918413162231
1712268074868522000,5.84152197265625,3.8239336013793945,-0.3750181198120117,1.439310073852539
1712268074878521000,5.85152099609375,4.747284889221191,0.47077226638793945,1.9316673278808594
1712268074888520000,5.86152001953125,4.753971099853516,0.7514533996582031,1.5078567266464233
1712268074898519000,5.87151904296875,3.9187211990356445,0.5266180038452148,0.6673821210861206
1712268074908518100,5.88151806640625,2.8858327865600586,0.03703117370605469,-0.2439580261707306
1712268074918517000,5.89151708984375,2.3834228515625,-0.7387642860412598,-1.136185646057129
1712268074928516000,5.90151611328125,2.0436973571777344,-1.6223201751708984,-1.7729203701019287
1712268074938515200,5.91151513671875,1.9251527786254883,-2.1320953369140625,-1.9152698516845703
1712268074948514300,5.921514404296875,2.149977684020996,-2.4411730766296387,-1.6850857734680176
1712268074958513400,5.931513427734375,2.009429931640625,-2.272861957550049,-1.3214428424835205
1712268074968512300,5.94151220703125,1.7551732063293457,-1.8909130096435547,-1.0013041496276855
1712268074978511400,5.951511474609375,1.6179075241088867,-1.535153865814209,-0.9086287617683411
1712268074988510500,5.961510498046875,1.7388334274291992,-1.257744312286377,-0.9985293745994568
1712268074998509300,5.97150927734375,1.8114280700683594,-1.1512856483459473,-1.0705013275146484
1712268075008508400,5.98150830078125,2.0261125564575195,-1.2152190208435059,-1.0196508169174194
1712268075018507300,5.99150732421875,2.1271138191223145,-1.4705286026000977,-0.8244301676750183
1712268075028506000,6.001506103515625,2.2980337142944336,-1.8768424987792969,-0.7720808982849121
1712268075038505000,6.0115048828125,2.4839024543762207,-2.263322353363037,-0.732943594455719
1712268075048503600,6.021503662109375,2.542158603668213,-2.5502758026123047,-0.8387506008148193
1712268075058502400,6.03150244140625,2.777963161468506,-2.526317596435547,-0.8177003860473633
1712268075068501000,6.0415009765625,3.2141947746276855,-2.1776633262634277,-0.6735961437225342
1712268075078499800,6.051499755859375,3.4387102127075195,-1.6198878288269043,-0.43830084800720215
1712268075088498700,6.061498779296875,3.8181562423706055,-0.901221752166748,0.003252863883972168
1712268075098497300,6.071497314453125,4.1698079109191895,-0.1913161277770996,0.39116060733795166
1712268075108496100,6.08149609375,4.155587673187256,0.35091161727905273,0.5939972400665283
1712268075118494700,6.09149462890625,3.800172805786133,0.6094794273376465,0.7649666666984558
1712268075128493600,6.10149365234375,3.358182430267334,0.7651147842407227,1.0502089262008667
1712268075138492200,6.1114921875,2.9726686477661133,0.9033036231994629,1.2324204444885254
1712268075148490800,6.12149072265625,2.965904712677002,1.0803861618041992,1.3603012561798096
1712268075158489600,6.131489501953125,3.2163939476013184,1.241368293762207,1.4695619344711304
1712268075168488400,6.141488525390625,3.169541835784912,1.1976618766784668,1.4843158721923828
1712268075178487000,6.151487060546875,3.6251235008239746,1.294264316558838,1.5322670936584473
1712268075188486000,6.16148583984375,4.198636054992676,1.2250146865844727,1.7094368934631348
1712268075198484500,6.171484375,4.76934289932251,0.999549388885498,1.5408852100372314
1712268075208483300,6.1814833984375,4.845160007476807,0.5070586204528809,1.305105209350586
1712268075218482200,6.191482177734375,4.151801586151123,-0.2898983955383301,1.2122732400894165
1712268075228480800,6.201480712890625,3.294919013977051,-0.7603411674499512,1.0091378688812256
1712268075238479600,6.211479736328125,2.5552587509155273,-0.8195629119873047,0.5804846286773682
1712268075248478500,6.221478515625,2.294076442718506,-0.6338834762573242,0.2585298418998718
1712268075258477000,6.23147705078125,2.5325984954833984,-0.4237403869628906,0.2394324541091919
1712268075268476000,6.241475830078125,3.0245676040649414,-0.27504777908325195,0.16572630405426025
1712268075278474800,6.251474853515625,2.8671932220458984,-0.5319027900695801,0.10008895397186279
1712268075288473300,6.261473388671875,5.1272687911987305,-0.5183448791503906,1.2984596490859985
1712268075298472200,6.27147216796875,5.664646148681641,-0.8576564788818359,1.555075764656067
1712268075308470800,6.281470703125,4.8037109375,-1.5916919708251953,1.0067355632781982
1712268075318469600,6.2914697265625,2.7181129455566406,-2.6902103424072266,0.04711174964904785
1712268075328468500,6.301468505859375,0.34033679962158203,-3.5439836978912354,-0.6782667636871338
1712268075338467000,6.311467041015625,-1.6309776306152344,-3.772096872329712,-1.3820664882659912
1712268075348466000,6.3214658203125,-2.757411003112793,-3.5451037883758545,-1.7720004320144653
1712268075358464800,6.33146484375,-2.7868313789367676,-2.949124813079834,-1.5443435907363892
1712268075368463400,6.34146337890625,-2.191349506378174,-2.227534294128418,-0.9028801918029785
1712268075378462200,6.351462158203125,-1.730337142944336,-1.875923991203308,-0.42419934272766113
1712268075388461000,6.3614609375,-1.7690887451171875,-1.9872136116027832,-0.09749758243560791
1712268075398459600,6.371459716796875,-2.557161808013916,-2.1080150604248047,-0.0796511173248291
1712268075408458500,6.38145849609375,-3.708369731903076,-2.1407127380371094,-0.16781044006347656
1712268075418457000,6.39145703125,-4.624891757965088,-1.8513449430465698,-0.22995388507843018
1712268075428456000,6.4014560546875,-5.290136814117432,-1.6616997718811035,-0.4148162603378296
1712268075438454800,6.411454833984375,-5.7436041831970215,-1.3357021808624268,-0.4459115266799927
1712268075448453400,6.421453369140625,-5.704475402832031,-0.8756486177444458,-0.3267486095428467
1712268075458452200,6.4314521484375,-4.957093238830566,-0.5284261703491211,-0.16384601593017578
1712268075468450800,6.441450927734375,-3.775434970855713,-0.44926923513412476,0.03761756420135498
1712268075478449700,6.45144970703125,-2.786651134490967,-0.6906728744506836,0.010064840316772461
1712268075488448300,6.4614482421875,-2.2780251502990723,-0.9681382179260254,-0.14658010005950928
1712268075498447000,6.471447021484375,-2.094320774078369,-1.0371921062469482,-0.2532423734664917
1712268075508445700,6.48144580078125,-2.1600260734558105,-0.9547767043113708,-0.5460222959518433
1712268075518444500,6.491444580078125,-2.323136806488037,-0.9153794050216675,-0.8894228935241699
1712268075528443100,6.501443115234375,-2.094360828399658,-0.7238219976425171,-1.0771381855010986
1712268075538442000,6.51144189453125,-1.5209064483642578,-0.4590679407119751,-1.0014442205429077
1712268075548440600,6.521440673828125,-0.8052682876586914,-0.32158327102661133,-0.8547272682189941
1712268075558439400,6.531439453125,-0.2064676284790039,-0.2778829336166382,-0.7000899314880371
1712268075568438300,6.541438232421875,-0.060698509216308594,-0.21325349807739258,-0.5288411378860474
1712268075578436900,6.551436767578125,-0.031882286071777344,-0.058999061584472656,-0.3626950979232788
1712268075588435700,6.561435791015625,-0.12007713317871094,0.07209944725036621,-0.23133862018585205
1712268075598434600,6.5714345703125,-0.2985849380493164,0.11099696159362793,-0.14787507057189941
1712268075608433200,6.58143310546875,-0.49305152893066406,-0.030645132064819336,-0.13756823539733887
1712268075618432000,6.591431884765625,-0.5970935821533203,-0.08129525184631348,-0.12663018703460693
1712268075628430800,6.601430908203125,-0.4219179153442383,0.01640033721923828,-0.042672038078308105
1712268075638429400,6.611429443359375,-0.1053304672241211,0.16936898231506348,-0.02363574504852295
1712268075648428300,6.62142822265625,0.10757160186767578,0.2387235164642334,-0.00963449478149414
1712268075658427000,6.631427001953125,0.23943042755126953,0.17862725257873535,0.0001068115234375
1712268075668425700,6.64142578125,0.3289155960083008,0.07008099555969238,0.0002703666687011719
1712268075678424600,6.651424560546875,0.15775585174560547,0.014097929000854492,-0.002627849578857422
1712268075688423200,6.661423095703125,0.023614883422851562,0.05463433265686035,0.03221166133880615
1712268075698422000,6.671422119140625,0.07871532440185547,0.1097722053527832,-0.010364770889282227
1712268075708420600,6.681420654296875,0.22005367279052734,0.09802770614624023,-0.04959452152252197
1712268075718419500,6.69141943359375,0.4456357955932617,0.03535580635070801,-0.13688039779663086
1712268075728418300,6.701418212890625,0.6967258453369141,-0.05018281936645508,-0.31506168842315674
1712268075738417000,6.7114169921875,0.8934354782104492,-0.12688136100769043,-0.421893835067749
1712268075748415700,6.721415771484375,0.9747543334960938,-0.06970572471618652,-0.434861421585083
1712268075758414600,6.73141455078125,0.8638324737548828,-0.018909692764282227,-0.3809434175491333
1712268075768413200,6.7414130859375,0.6473360061645508,0.009264707565307617,-0.2656526565551758
1712268075778412000,6.751412109375,0.4058523178100586,0.03423643112182617,-0.2097986936569214
1712268075788411000,6.761410888671875,0.14786911010742188,0.04973292350769043,-0.1444416046142578
1712268075798409700,6.77140966796875,-0.058279991149902344,0.06421780586242676,-0.07554781436920166
1712268075808408300,6.781408203125,-0.1320352554321289,0.07854700088500977,-0.043727993965148926
1712268075818407400,6.791407470703125,-0.18886280059814453,-0.0014352798461914062,-0.024324417114257812
1712268075828406300,6.80140625,-0.1476421356201172,-0.09367012977600098,-0.10040044784545898
1712268075838405000,6.811405029296875,-0.0655508041381836,-0.16519570350646973,-0.1530165672302246
1712268075848404000,6.821404052734375,0.11291694641113281,-0.1432509422302246,-0.1559898853302002
1712268075858402800,6.83140283203125,0.2663383483886719,-0.10618972778320312,-0.14178502559661865
1712268075868401700,6.841401611328125,0.07918167114257812,-0.34554386138916016,-0.25411736965179443
1712268075878400800,6.85140087890625,-0.21865081787109375,-0.6227355003356934,-0.3717961311340332
1712268075888399400,6.8613994140625,-0.5019845962524414,-0.6077947616577148,-0.37177741527557373
1712268075898398200,6.871398193359375,-0.5282869338989258,-0.2913990020751953,-0.23517268896102905
1712268075908397000,6.88139697265625,-0.40526866912841797,0.05622696876525879,-0.13574445247650146
1712268075918396000,6.89139599609375,-0.238677978515625,0.20837831497192383,-0.009959697723388672
1712268075928394800,6.901394775390625,-0.08865547180175781,0.08855462074279785,0.009951472282409668
1712268075938393600,6.9113935546875,0.04253959655761719,-0.09835124015808105,-0.010557413101196289
1712268075948392400,6.921392333984375,0.09785270690917969,-0.16014432907104492,-0.006827592849731445
1712268075958391300,6.931391357421875,0.0848388671875,-0.14871954917907715,-0.07461690902709961
1712268075968390100,6.94139013671875,0.06114482879638672,-0.04610896110534668,-0.028795719146728516
1712268075978389000,6.951388916015625,0.08395957946777344,0.014492034912109375,-0.02219104766845703
1712268075988388000,6.96138818359375,-0.055434226989746094,-0.049413442611694336,-0.1544198989868164
1712268075998387000,6.971386962890625,-0.16356754302978516,-0.08579635620117188,-0.21792781352996826
1712268076008385800,6.9813857421875,-0.1735382080078125,-0.08376431465148926,-0.16885906457901
1712268076018384600,6.991384521484375,-0.10186290740966797,-0.028773069381713867,-0.1105353832244873
1712268076028383500,7.001383544921875,-0.0273895263671875,0.006579875946044922,0.009843647480010986
1712268076038382300,7.01138232421875,0.004731178283691406,0.03791379928588867,-0.00950157642364502
1712268076048381200,7.021381103515625,-0.03167533874511719,0.023507356643676758,-0.08150935173034668
1712268076058379800,7.0313798828125,-0.048262596130371094,0.009334564208984375,-0.04215991497039795
1712268076068379000,7.04137890625,-0.04059410095214844,-0.022104263305664062,0.026651740074157715
1712268076078377500,7.05137744140625,-0.2124643325805664,-0.07228899002075195,0.0392146110534668
1712268076088376300,7.061376220703125,-0.39162254333496094,-0.08111882209777832,0.08008253574371338
1712268076098375200,7.071375244140625,-0.3791837692260742,0.045018911361694336,0.293130099773407
1712268076108374000,7.0813740234375,-0.35219478607177734,0.16494393348693848,0.3583762049674988
1712268076118372600,7.09137255859375,-0.2824125289916992,0.14051508903503418,0.26690393686294556
1712268076128371500,7.101371337890625,-0.1393299102783203,0.03760957717895508,0.18438589572906494
1712268076138370000,7.1113701171875,-0.09088420867919922,-0.08294916152954102,0.09727668762207031
1712268076148369000,7.121368896484375,-0.12763595581054688,-0.13989663124084473,-0.023935794830322266
1712268076158367500,7.131367431640625,-0.1514577865600586,-0.15499114990234375,-0.1855035424232483
1712268076168366300,7.141366455078125,-0.059180259704589844,-0.14270329475402832,-0.2932918071746826
1712268076178365000,7.151364990234375,0.1399364471435547,-0.15134167671203613,-0.3085000514984131
1712268076188363800,7.16136376953125,0.26428890228271484,-0.19384121894836426,-0.26324784755706787
1712268076198362400,7.1713623046875,0.25946712493896484,-0.2771730422973633,-0.24957644939422607
1712268076208361200,7.181361328125,0.2603130340576172,-0.27918243408203125,-0.2837272882461548
1712268076218360000,7.191360107421875,0.25345897674560547,-0.12871289253234863,-0.2678191661834717
1712268076228358700,7.201358642578125,0.3183746337890625,0.02669835090637207,-0.1479395627975464
1712268076238357500,7.211357421875,0.2825202941894531,0.06318879127502441,-0.10847318172454834
1712268076248356400,7.2213564453125,0.17198657989501953,0.002267599105834961,-0.06989777088165283
1712268076258355000,7.23135498046875,-0.019952774047851562,-0.09781646728515625,-0.12700241804122925
1712268076268353800,7.241353759765625,-0.102813720703125,-0.14499545097351074,-0.18707209825515747
1712268076278352600,7.2513525390625,-0.07715606689453125,-0.14156508445739746,-0.19108569622039795
1712268076288351200,7.261351318359375,0.03530311584472656,-0.15366721153259277,-0.2570968270301819
1712268076298350000,7.27135009765625,0.1440296173095703,-0.175553560256958,-0.30691713094711304
1712268076308348700,7.2813486328125,0.20682811737060547,-0.2197434902191162,-0.2774520516395569
1712268076318347500,7.291347412109375,0.22220897674560547,-0.24616146087646484,-0.23239850997924805
1712268076328346400,7.301346435546875,0.16186237335205078,-0.23014163970947266,-0.1789758801460266
1712268076338345000,7.311344970703125,0.11937808990478516,-0.13400578498840332,-0.08184581995010376
1712268076348343800,7.32134375,0.08013629913330078,-0.05741715431213379,0.018598437309265137
1712268076358342700,7.3313427734375,0.010241508483886719,0.0031752586364746094,0.09692919254302979
1712268076368341200,7.34134130859375,-0.040447235107421875,0.015421390533447266,0.09932655096054077
1712268076378340000,7.351340087890625,-0.04603004455566406,0.0190885066986084,0.03366804122924805
1712268076388339000,7.3613388671875,-0.013865470886230469,-0.020904541015625,-0.016649305820465088
1712268076398337500,7.371337646484375,-0.056351661682128906,-0.033111572265625,-0.1190340518951416
1712268076408336400,7.38133642578125,-0.02240753173828125,-0.06371688842773438,-0.1975332498550415
1712268076418335000,7.3913349609375,0.06442642211914062,-0.06830048561096191,-0.24144315719604492
1712268076428333800,7.401333740234375,0.11091804504394531,-0.033083200454711914,-0.21479934453964233
1712268076438332700,7.411332763671875,0.06426620483398438,-0.03956151008605957,-0.1663852334022522
1712268076448331300,7.421331298828125,-0.0736246109008789,-0.05557441711425781,-0.16583096981048584
1712268076458330000,7.431330078125,-0.2074298858642578,-0.07006120681762695,-0.0879630446434021
1712268076468328700,7.44132861328125,-0.1960744857788086,-0.0002932548522949219,-0.00608748197555542
1712268076478327600,7.45132763671875,-0.056105613708496094,0.024409055709838867,0.013118386268615723
1712268076488326400,7.461326416015625,0.08112907409667969,0.015555858612060547,0.008162081241607666
1712268076498325000,7.471324951171875,0.14194965362548828,-0.02729010581970215,-0.04543900489807129
1712268076508323800,7.48132373046875,0.09537696838378906,-0.10029196739196777,-0.1419880986213684
1712268076518322400,7.491322509765625,0.09930706024169922,-0.1577441692352295,-0.11556529998779297
1712268076528321300,7.5013212890625,0.03876304626464844,-0.15837645530700684,-0.12751168012619019
1712268076538320000,7.51131982421875,0.07632827758789062,-0.08703994750976562,-0.10572141408920288
1712268076548318700,7.521318603515625,0.10175514221191406,-0.0701906681060791,-0.08371639251708984
1712268076558317300,7.5313173828125,0.01678180694580078,-0.08617854118347168,-0.1373949646949768
1712268076568316000,7.54131591796875,-0.07091045379638672,-0.2066497802734375,-0.20910972356796265
1712268076578314800,7.551314697265625,-0.16824054718017578,-0.3121621608734131,-0.24576658010482788
1712268076588313600,7.561313720703125,-0.11899185180664062,-0.25075864791870117,-0.219027578830719
1712268076598312200,7.571312255859375,0.09418106079101562,-0.01649785041809082,-0.04790979623794556
1712268076608311000,7.58131103515625,0.20584774017333984,0.05180191993713379,0.023227214813232422
1712268076618310000,7.591309814453125,0.1560497283935547,0.005628108978271484,0.010605037212371826
1712268076628308500,7.60130859375,0.0089874267578125,-0.11415910720825195,-0.09359860420227051
1712268076638307300,7.611307373046875,-0.13303565979003906,-0.22628450393676758,-0.19999819993972778
1712268076648306000,7.621305908203125,-0.15798568725585938,-0.28037047386169434,-0.2261698842048645
1712268076658304800,7.6313046875,-0.051568031311035156,-0.20575761795043945,-0.14576715230941772
1712268076668303400,7.641303466796875,0.09563446044921875,-0.09430932998657227,-0.05617833137512207
1712268076678302200,7.65130224609375,0.13309860229492188,-0.029106855392456055,-0.0065233707427978516
1712268076688301000,7.661301025390625,0.05374622344970703,-0.03758525848388672,-0.035756826400756836
1712268076698299600,7.671299560546875,-0.06139087677001953,-0.09050488471984863,-0.07223761081695557
1712268076708298500,7.681298583984375,-0.09320545196533203,-0.10907554626464844,-0.12047058343887329
1712268076718297300,7.69129736328125,-0.05412006378173828,-0.07936573028564453,-0.15483146905899048
1712268076728296000,7.7012958984375,0.019738197326660156,-0.05788469314575195,-0.1877206563949585
1712268076738294800,7.711294677734375,0.0895681381225586,-0.01223134994506836,-0.18917089700698853
1712268076748293600,7.721293701171875,0.17302894592285156,0.03553581237792969,-0.13878458738327026
1712268076758292200,7.731292236328125,0.143402099609375,0.03162074089050293,-0.0858314037322998
1712268076768291000,7.741291015625,0.10367298126220703,0.05237078666687012,-0.07782173156738281
1712268076778289700,7.75128955078125,0.10183429718017578,0.03310084342956543,-0.08445948362350464
1712268076788288500,7.76128857421875,0.1526012420654297,0.03583931922912598,-0.08432483673095703
1712268076798287400,7.771287353515625,0.17256927490234375,0.013883352279663086,-0.07810932397842407
1712268076808286000,7.781285888671875,0.21466922760009766,-0.00025844573974609375,-0.12322330474853516
1712268076818284800,7.791284912109375,0.22391986846923828,-0.05228304862976074,-0.1601402759552002
1712268076828283600,7.80128369140625,0.1499948501586914,-0.08948087692260742,-0.19331896305084229
1712268076838282200,7.8112822265625,0.12682723999023438,-0.09706354141235352,-0.12907135486602783
1712268076848281300,7.82128125,0.0800323486328125,-0.059973716735839844,-0.06330788135528564
1712268076858280200,7.8312802734375,0.01660442352294922,0.005537509918212891,0.004465818405151367
1712268076868279300,7.841279296875,0.010499000549316406,0.05463290214538574,0.09423708915710449
1712268076878278100,7.851278076171875,0.013541221618652344,0.05472445487976074,0.11061978340148926
1712268076888277200,7.86127734375,-0.07252883911132812,0.015358686447143555,0.011442184448242188
1712268076898276000,7.871276123046875,-0.08979320526123047,-0.022610187530517578,-0.049524664878845215
1712268076908275200,7.881275146484375,-0.0142059326171875,-0.03497910499572754,-0.013898015022277832
1712268076918274300,7.8912744140625,0.06606674194335938,-0.01540684700012207,0.056647300720214844
1712268076928273400,7.9012734375,0.12271595001220703,0.022694110870361328,0.01809382438659668
1712268076938272300,7.911272216796875,0.10320377349853516,0.0019845962524414062,0.00017464160919189453
1712268076948271400,7.921271240234375,0.062491416931152344,-0.022393465042114258,-0.051384568214416504
1712268076958270500,7.9312705078125,0.13218402862548828,-0.07163619995117188,-0.06247067451477051
1712268076968269600,7.94126953125,0.19134235382080078,-0.07000184059143066,-0.07680779695510864
1712268076978268700,7.9512685546875,0.20223236083984375,-0.05537724494934082,-0.054171741008758545
1712268076988267500,7.961267578125,0.14578914642333984,-0.02115345001220703,-0.027509093284606934
1712268076998266600,7.9712666015625,0.13236331939697266,-0.006089210510253906,0.007123708724975586
1712268077008265700,7.981265625,0.17423057556152344,-0.0057849884033203125,0.016729354858398438
1712268077018264800,7.991264892578125,0.14459705352783203,-0.015737533569335938,-0.022907137870788574
