time,seconds_elapsed,z,y,x
1712257561756034300,0.091034423828125,0.12047576904296875,0.0987248420715332,-0.3103257417678833
1712257561766039300,0.101039306640625,0.11899852752685547,0.10126280784606934,-0.2959742546081543
1712257561776041200,0.111041259765625,-0.1526479721069336,0.2815589904785156,-0.15822306275367737
1712257561786042600,0.121042724609375,-0.15243053436279297,0.2533261775970459,-0.15590500831604004
1712257561796043500,0.13104345703125,-0.1081533432006836,0.2208113670349121,-0.16856473684310913
1712257561806044200,0.141044189453125,-0.09461116790771484,0.16320109367370605,-0.1682858169078827
1712257561816044500,0.15104443359375,-0.10974502563476562,0.11763691902160645,-0.19034400582313538
1712257561826045000,0.161044921875,-0.11307525634765625,0.09203767776489258,-0.16213196516036987
1712257561836045000,0.171045166015625,-0.11171245574951172,0.04783487319946289,-0.1365659236907959
1712257561846045200,0.181045166015625,-0.09365177154541016,0.07843232154846191,-0.10256275534629822
1712257561856045000,0.191045166015625,-0.0875082015991211,0.0828390121459961,-0.07719698548316956
1712257561866045000,0.201044921875,-0.06693077087402344,0.0945134162902832,-0.041408538818359375
1712257561876044800,0.211044921875,-0.053442955017089844,0.1397716999053955,0.016225457191467285
1712257561886044400,0.22104443359375,-0.030134201049804688,0.1654517650604248,0.07101553678512573
1712257561896044300,0.231044189453125,-0.03522014617919922,0.20707416534423828,0.08706191182136536
1712257561906044000,0.2410439453125,-0.07348346710205078,0.20204734802246094,0.05189889669418335
1712257561916043800,0.251043701171875,-0.06857776641845703,0.18232393264770508,0.043605417013168335
1712257561926043400,0.26104345703125,-0.037322998046875,0.172288179397583,0.027431458234786987
1712257561936043300,0.271043212890625,-0.008518218994140625,0.13390588760375977,0.02255311608314514
1712257561946043000,0.28104296875,0.07273292541503906,0.1013631820678711,-0.018961608409881592
1712257561956042500,0.29104248046875,0.11533737182617188,0.07491111755371094,-0.0674264132976532
1712257561966042000,0.3010419921875,0.11681461334228516,0.04261517524719238,-0.08761170506477356
1712257561976041700,0.311041748046875,0.14189910888671875,0.01374959945678711,-0.10136616230010986
1712257561986041300,0.321041259765625,0.1498889923095703,0.029070615768432617,-0.03005567193031311
1712257561996040700,0.331040771484375,0.11952877044677734,0.030223846435546875,-0.011524736881256104
1712257562006040000,0.3410400390625,0.13465118408203125,0.060172080993652344,0.006877124309539795
1712257562016039700,0.351039794921875,0.13550472259521484,0.06833648681640625,0.04365840554237366
1712257562026039000,0.3610390625,0.0862579345703125,0.0711982250213623,0.03632119297981262
1712257562036038400,0.371038330078125,-0.027640342712402344,0.06439018249511719,-0.02050378918647766
1712257562046037800,0.381037841796875,-0.08167743682861328,0.021384239196777344,-0.09948304295539856
1712257562056037000,0.391037109375,-0.06879425048828125,-0.03086543083190918,-0.10092020034790039
1712257562066036200,0.4010361328125,-0.07296943664550781,-0.045841217041015625,-0.058192282915115356
1712257562076035300,0.411035400390625,-0.1036977767944336,-0.05518341064453125,-0.061081647872924805
1712257562086034400,0.421034423828125,-0.08204078674316406,-0.049185752868652344,-0.05348891019821167
1712257562096033500,0.431033447265625,-0.06776809692382812,-0.023214101791381836,-0.03661122918128967
1712257562106032600,0.44103271484375,-0.04630756378173828,-0.01623058319091797,-0.02333235740661621
1712257562116031500,0.451031494140625,-0.10142135620117188,0.012188911437988281,-0.04867151379585266
1712257562126030600,0.461030517578125,-0.1419963836669922,-0.02478814125061035,-0.09964606165885925
1712257562136029400,0.471029541015625,-0.1371746063232422,0.005448818206787109,-0.13251547515392303
1712257562146028300,0.4810283203125,-0.09399604797363281,0.009182214736938477,-0.11989501118659973
1712257562156027400,0.49102734375,-0.024453163146972656,0.012923002243041992,-0.06492796540260315
1712257562166026200,0.501026123046875,0.021203041076660156,0.011765003204345703,-0.015425026416778564
1712257562176025000,0.511025146484375,0.01654052734375,-0.0011429786682128906,0.026323676109313965
1712257562186024000,0.52102392578125,-0.017059326171875,0.020282745361328125,0.03200936317443848
1712257562196022800,0.531022705078125,-0.026800155639648438,0.03254079818725586,0.051353901624679565
1712257562206021600,0.541021728515625,-0.02935028076171875,0.0832979679107666,0.061801642179489136
1712257562216020500,0.5510205078125,0.037776947021484375,0.1094207763671875,0.06327620148658752
1712257562226019300,0.561019287109375,0.06463909149169922,0.1340017318725586,0.059079766273498535
1712257562236018000,0.571017822265625,0.09924507141113281,0.13499045372009277,0.056691914796829224
1712257562246016800,0.581016845703125,0.036144256591796875,0.10310959815979004,0.02813166379928589
1712257562256015400,0.591015380859375,-0.010016441345214844,0.09194016456604004,-0.03019121289253235
1712257562266014200,0.60101416015625,-0.015406608581542969,0.0252535343170166,-0.098935067653656
1712257562276012800,0.6110126953125,-0.054709434509277344,-0.04492974281311035,-0.1301736682653427
1712257562286011600,0.62101171875,-0.046772003173828125,-0.08415031433105469,-0.07371550798416138
1712257562296010200,0.63101025390625,-0.04440879821777344,-0.10605764389038086,-0.019691824913024902
1712257562306009000,0.641009033203125,-0.03314399719238281,-0.07024168968200684,0.050105154514312744
1712257562316008000,0.651008056640625,0.0018749237060546875,-0.02149796485900879,0.05327063798904419
1712257562326006500,0.661006591796875,-0.0038318634033203125,0.025029420852661133,0.02705591917037964
1712257562336005400,0.67100537109375,0.014929771423339844,0.012094974517822266,0.0034148693084716797
1712257562346004000,0.68100390625,-0.0760345458984375,-0.01444101333618164,-0.026667416095733643
1712257562356002800,0.6910029296875,-0.114013671875,-0.09010171890258789,-0.10402670502662659
1712257562366001400,0.70100146484375,-0.14506053924560547,-0.11237192153930664,-0.13166047632694244
1712257562376000300,0.711000244140625,-0.14784908294677734,-0.14019298553466797,-0.14375491440296173
1712257562385998800,0.720998779296875,-0.12020492553710938,-0.14153766632080078,-0.14800341427326202
1712257562395997700,0.730997802734375,-0.019054412841796875,-0.13304758071899414,-0.1445326805114746
1712257562405996500,0.74099658203125,0.08384418487548828,-0.11957859992980957,-0.11097191274166107
1712257562415995400,0.750995361328125,0.15543460845947266,-0.10293316841125488,-0.03944522142410278
1712257562425994000,0.760993896484375,0.17206287384033203,-0.06980419158935547,0.009759694337844849
1712257562435992800,0.770992919921875,0.11971855163574219,-0.019205331802368164,0.05862995982170105
1712257562445991700,0.78099169921875,0.03937721252441406,0.04542112350463867,0.1333581507205963
1712257562455990300,0.790990234375,-0.07596015930175781,0.10675048828125,0.12472936511039734
1712257562465989000,0.800989013671875,-0.12816810607910156,0.12421441078186035,0.07837262749671936
1712257562475987700,0.81098779296875,-0.16788959503173828,0.11581277847290039,0.03395211696624756
1712257562485986600,0.820986572265625,-0.15238380432128906,0.05894017219543457,-0.017702460289001465
1712257562495985200,0.830985107421875,-0.11806201934814453,0.024944543838500977,-0.021806389093399048
1712257562505984000,0.84098388671875,-0.05303478240966797,-0.019365549087524414,0.03588739037513733
1712257562515982800,0.85098291015625,-0.005270957946777344,-0.016202688217163086,0.05233392119407654
1712257562525981700,0.860981689453125,0.056641578674316406,0.021413803100585938,0.08463862538337708
1712257562535980300,0.870980224609375,0.12596893310546875,0.07508587837219238,0.14422115683555603
1712257562545979100,0.880979248046875,0.12644577026367188,0.08845186233520508,0.1516844630241394
1712257562555978000,0.89097802734375,0.08203983306884766,0.1330726146697998,0.14449834823608398
1712257562565976600,0.9009765625,0.03346538543701172,0.12745213508605957,0.168620765209198
1712257562575975400,0.910975341796875,-0.019575119018554688,0.11349892616271973,0.17806875705718994
1712257562585974000,0.92097412109375,-0.036683082580566406,0.08994889259338379,0.09651312232017517
1712257562595972900,0.930972900390625,-0.07335662841796875,0.06542372703552246,-0.007696986198425293
1712257562605971500,0.940971435546875,-0.05064964294433594,0.02087855339050293,-0.03318929672241211
1712257562615970300,0.95097021484375,-0.04030323028564453,-0.012724161148071289,-0.06742817163467407
1712257562625969200,0.96096923828125,0.0032558441162109375,-0.03339743614196777,-0.05223235487937927
1712257562635967700,0.9709677734375,0.02738475799560547,-0.036367177963256836,-0.06036442518234253
1712257562645966300,0.98096630859375,0.032372474670410156,-0.03944087028503418,-0.039331018924713135
1712257562655965200,0.990965087890625,0.039764404296875,-0.045001983642578125,0.008467763662338257
1712257562665964000,1.000964111328125,0.027927398681640625,-0.055098772048950195,-0.017743080854415894
1712257562675962600,1.010962646484375,-0.04637336730957031,-0.07890105247497559,-0.05013084411621094
1712257562685961500,1.02096142578125,-0.07312297821044922,-0.1327953338623047,-0.12395918369293213
1712257562695960000,1.0309599609375,-0.03821086883544922,-0.1606600284576416,-0.12021124362945557
1712257562705959000,1.040958984375,0.02002429962158203,-0.11431646347045898,-0.09756392240524292
1712257562715957500,1.05095751953125,0.030054092407226562,-0.07876324653625488,-0.05778014659881592
1712257562725956400,1.060956298828125,0.03528881072998047,-0.01927804946899414,-0.02471432089805603
1712257562735955000,1.070954833984375,0.031302452087402344,0.010172128677368164,0.02015414834022522
1712257562745953800,1.080953857421875,0.027879714965820312,0.0208587646484375,-0.005394399166107178
1712257562755952400,1.090952392578125,0.010668754577636719,0.0055065155029296875,-0.014929711818695068
1712257562765951200,1.100951171875,0.03448200225830078,-0.01097416877746582,-0.0396152138710022
1712257562775950000,1.1109501953125,0.03685474395751953,-0.018236398696899414,-0.04307332634925842
1712257562785948700,1.12094873046875,-0.02788829803466797,-0.05877852439880371,-0.02223321795463562
1712257562795947500,1.130947509765625,-0.02817821502685547,-0.014851093292236328,-0.0032531023025512695
1712257562805946400,1.1409462890625,0.0025930404663085938,0.0006961822509765625,-0.0018546879291534424
1712257562815945000,1.150945068359375,0.002162933349609375,0.0023174285888671875,-0.0017140507698059082
1712257562825943800,1.16094384765625,0.018548011779785156,0.022930145263671875,0.05789002776145935
1712257562835942700,1.170942626953125,-0.000522613525390625,0.03953146934509277,0.061384379863739014
1712257562845941200,1.180941162109375,-0.045767784118652344,0.07222795486450195,0.06761208176612854
1712257562855940000,1.190940185546875,-0.09775543212890625,0.1080322265625,0.07626762986183167
1712257562865938700,1.200938720703125,-0.0966787338256836,0.11845135688781738,0.07503947615623474
1712257562875937500,1.2109375,-0.05954551696777344,0.12126851081848145,0.0609416663646698
1712257562885936000,1.22093603515625,-0.017694473266601562,0.08613824844360352,0.053341805934906006
1712257562895935000,1.23093505859375,0.03131389617919922,0.04400324821472168,0.03801855444908142
1712257562905933800,1.240933837890625,0.06346607208251953,-0.01690053939819336,0.04172822833061218
1712257562915932700,1.2509326171875,0.04506397247314453,-0.03368520736694336,0.004936784505844116
1712257562925931300,1.26093115234375,0.0024404525756835938,-0.07356715202331543,-0.03264898061752319
1712257562935930000,1.27093017578125,-0.02132892608642578,-0.057482242584228516,-0.02049127221107483
1712257562945929000,1.280928955078125,-0.03324413299560547,-0.03857541084289551,0.00609782338142395
1712257562955927800,1.290927734375,0.0026674270629882812,-0.0360722541809082,-0.02095744013786316
1712257562965926700,1.3009267578125,0.026487350463867188,-0.013977766036987305,-0.023991256952285767
1712257562975925500,1.310925537109375,0.011988639831542969,-0.013469457626342773,0.04056715965270996
1712257562985924600,1.320924560546875,-0.040772438049316406,0.010791778564453125,0.09093567728996277
1712257562995923500,1.33092333984375,-0.14371967315673828,0.025137662887573242,0.04781520366668701
1712257563005922300,1.34092236328125,-0.16749286651611328,-0.006657838821411133,-0.016584277153015137
1712257563015921200,1.350921142578125,-0.13861083984375,-0.024002552032470703,-0.05957254767417908
1712257563025920300,1.360920166015625,-0.08345222473144531,-0.0601956844329834,-0.1007472425699234
1712257563035919000,1.370919189453125,-0.014121055603027344,-0.09333586692810059,-0.11982530355453491
1712257563045918000,1.38091796875,-0.04332256317138672,-0.10373926162719727,-0.09914331138134003
1712257563055917000,1.3909169921875,-0.051253318786621094,-0.08215117454528809,-0.04581692814826965
1712257563065916000,1.400916015625,-0.009179115295410156,-0.02364349365234375,-0.042450517416000366
1712257563075914800,1.410914794921875,0.03276348114013672,0.03542137145996094,0.017909884452819824
1712257563085913600,1.42091357421875,0.0676727294921875,0.07728052139282227,0.05593186616897583
1712257563095912400,1.430912353515625,0.09572410583496094,0.09649658203125,0.04493972659111023
1712257563105911300,1.440911376953125,0.085845947265625,0.06642484664916992,0.0169450044631958
1712257563115910100,1.45091015625,0.09792137145996094,0.049184560775756836,0.019986271858215332
1712257563125909000,1.460908935546875,0.09109115600585938,0.06699872016906738,0.043950289487838745
1712257563135907800,1.470907958984375,0.08223819732666016,0.035601139068603516,0.004962831735610962
1712257563145907000,1.480906982421875,0.044533729553222656,0.06200909614562988,-0.004356801509857178
1712257563155905800,1.49090576171875,0.006796836853027344,0.05735015869140625,0.027555733919143677
1712257563165904600,1.500904541015625,0.002613067626953125,0.06458687782287598,0.03280124068260193
1712257563175903500,1.510903564453125,-0.049538612365722656,0.03864645957946777,-0.04847398400306702
1712257563185902300,1.52090234375,-0.03715705871582031,-0.04207015037536621,-0.08073598146438599
1712257563195901400,1.5309013671875,-0.022627830505371094,-0.07163834571838379,-0.043058156967163086
1712257563205900300,1.540900390625,-0.022640228271484375,-0.0813894271850586,0.028188645839691162
1712257563215899100,1.550899169921875,0.017968177795410156,-0.05476665496826172,0.08625221252441406
1712257563225898000,1.56089794921875,-0.0061473846435546875,-0.07309174537658691,0.0512518584728241
1712257563235896800,1.570896728515625,-0.035251617431640625,-0.04996514320373535,0.01159641146659851
1712257563245895700,1.580895751953125,-0.04299163818359375,-0.03349614143371582,-0.03866562247276306
1712257563255894500,1.59089453125,-0.024514198303222656,-0.059836626052856445,-0.0588325560092926
1712257563265893000,1.60089306640625,-0.04224109649658203,-0.07322478294372559,-0.08515423536300659
1712257563275892000,1.61089208984375,-0.11043071746826172,-0.08610892295837402,-0.11705583333969116
1712257563285890600,1.620890625,-0.11884784698486328,-0.09161162376403809,-0.1142616719007492
1712257563295889400,1.630889404296875,-0.11758995056152344,-0.07589197158813477,-0.08778423070907593
1712257563305888300,1.64088818359375,-0.04675579071044922,-0.03426527976989746,-0.04301387071609497
1712257563315886800,1.650886962890625,0.045882225036621094,-0.029325485229492188,0.009633272886276245
1712257563325885700,1.6608857421875,0.06923103332519531,-0.012709856033325195,0.033839523792266846
1712257563335884300,1.67088427734375,-0.02937602996826172,-0.03254246711730957,0.01683664321899414
1712257563345883100,1.680883056640625,-0.10871219635009766,-0.007498502731323242,-0.010669618844985962
1712257563355881700,1.6908818359375,-0.15929412841796875,0.0029380321502685547,-0.02957037091255188
1712257563365880600,1.700880615234375,-0.1428394317626953,0.04694008827209473,-0.041599974036216736
1712257563375879400,1.71087939453125,-0.10250473022460938,0.07688379287719727,-0.030269399285316467
1712257563385878000,1.7208779296875,-0.08103561401367188,0.07224392890930176,-0.045625001192092896
1712257563395876900,1.730876953125,-0.04725170135498047,0.03992581367492676,-0.029667556285858154
1712257563405875500,1.74087548828125,-0.05396270751953125,0.016417741775512695,-0.02587716281414032
1712257563415874300,1.750874267578125,0.006484031677246094,-0.00029587745666503906,0.0012969374656677246
1712257563425873200,1.760873046875,0.064453125,-0.002217531204223633,0.010647296905517578
1712257563435871700,1.770871826171875,0.09595584869384766,0.013209342956542969,0.08156442642211914
1712257563445870600,1.78087060546875,0.12500858306884766,0.05052757263183594,0.1177111566066742
1712257563455869400,1.790869384765625,0.11822128295898438,0.08760690689086914,0.12952500581741333
1712257563465868000,1.800867919921875,0.0948019027709961,0.08112955093383789,0.09083199501037598
1712257563475867000,1.810866943359375,0.06424236297607422,0.07207417488098145,0.03325638175010681
1712257563485865700,1.82086572265625,0.0026006698608398438,0.0220639705657959,-0.023506969213485718
1712257563495864300,1.8308642578125,-0.011209487915039062,-0.03505754470825195,-0.08632504940032959
1712257563505863200,1.84086328125,-0.05401325225830078,-0.09135007858276367,-0.09493958950042725
1712257563515861800,1.85086181640625,-0.030000686645507812,-0.12291479110717773,-0.059867098927497864
1712257563525860600,1.860860595703125,-0.07094860076904297,-0.11969184875488281,-0.027852684259414673
1712257563535859500,1.870859375,-0.06427764892578125,-0.06751656532287598,0.006167590618133545
1712257563545858000,1.880858154296875,-0.07677268981933594,-0.012867450714111328,0.07817289233207703
1712257563555857000,1.89085693359375,-0.07949066162109375,0.0339503288269043,0.11561653017997742
1712257563565855700,1.900855712890625,-0.10342216491699219,0.0652322769165039,0.07793745398521423
1712257563575854300,1.910854248046875,-0.0935678482055664,0.04040193557739258,0.06930327415466309
1712257563585853200,1.920853271484375,-0.0741281509399414,-0.0011959075927734375,0.05801168084144592
1712257563595851800,1.930851806640625,-0.1172342300415039,-0.029618501663208008,-0.018541842699050903
1712257563605850600,1.9408505859375,-0.06962013244628906,-0.1002805233001709,-0.10350005328655243
1712257563615849200,1.95084912109375,-0.008116722106933594,-0.13340425491333008,-0.11492794752120972
1712257563625848000,1.96084814453125,0.0651235580444336,-0.12964797019958496,-0.07429587841033936
1712257563635846700,1.9708466796875,0.0759735107421875,-0.12540102005004883,-0.076297327876091
1712257563645845500,1.980845458984375,0.06034660339355469,-0.06807708740234375,-0.022023826837539673
1712257563655844000,1.990843994140625,0.03529167175292969,0.0006005764007568359,-0.0007973015308380127
1712257563665843000,2.000843017578125,-0.03496837615966797,0.05621623992919922,0.05390322208404541
1712257563675841500,2.010841552734375,-0.03056812286376953,0.08868932723999023,0.059954553842544556
1712257563685840400,2.02084033203125,-0.04263877868652344,0.07227110862731934,0.012483179569244385
1712257563695839000,2.0308388671875,-0.047408103942871094,0.04102277755737305,-0.07810673117637634
1712257563705837800,2.040837890625,-0.030635833740234375,-0.004686117172241211,-0.09099829196929932
1712257563715836400,2.05083642578125,0.0482940673828125,-0.06680822372436523,-0.0941537618637085
1712257563725835300,2.060835205078125,0.04069709777832031,-0.08694839477539062,-0.10447606444358826
1712257563735834000,2.070834228515625,0.05675220489501953,-0.13005352020263672,-0.09430500864982605
1712257563745832700,2.080832763671875,0.04608440399169922,-0.0928487777709961,-0.060807883739471436
1712257563755831600,2.09083154296875,0.04717826843261719,-0.04521536827087402,0.020347267389297485
1712257563765830400,2.100830322265625,0.06034278869628906,0.00465083122253418,0.037329018115997314
1712257563775829000,2.1108291015625,0.06903266906738281,0.0198976993560791,0.08198073506355286
1712257563785827800,2.120827880859375,0.044513702392578125,0.050847768783569336,0.06060096621513367
1712257563795826700,2.13082666015625,0.013151168823242188,0.05657696723937988,0.019759029150009155
1712257563805825300,2.1408251953125,-0.010715484619140625,0.041884660720825195,0.024806171655654907
1712257563815824100,2.15082421875,-0.02236175537109375,0.0191195011138916,0.04354849457740784
1712257563825822700,2.16082275390625,-0.02189350128173828,0.03181767463684082,0.06368294358253479
1712257563835821600,2.170821533203125,-0.07161331176757812,0.025098562240600586,0.0374656617641449
1712257563845820400,2.1808203125,-0.1164999008178711,0.0013849735260009766,0.02619841694831848
1712257563855819000,2.190819091796875,-0.14467525482177734,-0.0006577968597412109,0.013234376907348633
1712257563865817900,2.20081787109375,-0.1705331802368164,-0.03350090980529785,0.0023307204246520996
1712257563875816700,2.210816650390625,-0.15101337432861328,-0.017952919006347656,0.010071814060211182
1712257563885815300,2.220815185546875,-0.078826904296875,-0.007112741470336914,0.0748167634010315
1712257563895814100,2.230814208984375,-0.049663543701171875,0.006027936935424805,0.05168527364730835
1712257563905812700,2.240812744140625,-0.02294158935546875,-0.009370088577270508,0.021338552236557007
1712257563915811600,2.2508115234375,-0.02745532989501953,0.023432016372680664,0.023119240999221802
1712257563925810400,2.260810546875,-0.02476978302001953,0.03214883804321289,0.047160327434539795
1712257563935809000,2.27080908203125,-0.022110939025878906,0.04337430000305176,0.016112565994262695
1712257563945808000,2.280807861328125,0.011652946472167969,0.037842512130737305,0.000034421682357788086
1712257563955806700,2.290806640625,0.06696510314941406,0.0059261322021484375,-0.015601485967636108
1712257563965805300,2.300805419921875,0.10541915893554688,-0.004105806350708008,-0.016528964042663574
1712257563975804200,2.31080419921875,0.06713199615478516,-0.028050661087036133,-0.045915499329566956
1712257563985802800,2.320802734375,0.0047359466552734375,-0.013236761093139648,-0.09289908409118652
1712257563995801600,2.330801513671875,-0.021780967712402344,-0.017673254013061523,-0.10673229396343231
1712257564005800400,2.340800537109375,-0.0626373291015625,0.018423795700073242,-0.07687726616859436
1712257564015799300,2.35079931640625,-0.0649728775024414,0.029843568801879883,-0.057312577962875366
1712257564025798100,2.360798095703125,-0.026365280151367188,0.04044651985168457,-0.048215463757514954
1712257564035797000,2.370796875,-0.021123886108398438,0.05283093452453613,0.04004064202308655
1712257564045795800,2.3807958984375,-0.08033466339111328,0.03821992874145508,0.08447664976119995
1712257564055794700,2.390794677734375,-0.1707143783569336,-0.009724140167236328,0.059342920780181885
1712257564065793300,2.400793212890625,-0.25430774688720703,-0.015460014343261719,0.0966775119304657
1712257564075792100,2.410792236328125,-0.34296226501464844,0.013648033142089844,0.2943042814731598
1712257564085791000,2.420791015625,-0.42649078369140625,0.11178112030029297,0.5942502021789551
1712257564095789800,2.430789794921875,-1.0163612365722656,0.22350049018859863,0.9650576114654541
1712257564105788700,2.44078857421875,-1.2267742156982422,0.47103190422058105,1.3155988454818726
1712257564115787500,2.45078759765625,-1.2125749588012695,0.7778630256652832,1.6924203634262085
1712257564125786400,2.460786376953125,-1.063797950744629,1.1033477783203125,2.074631452560425
1712257564135785000,2.470784912109375,-0.9322128295898438,1.2574043273925781,2.4861183166503906
1712257564145783800,2.48078369140625,-0.6722621917724609,1.4669122695922852,3.1922945976257324
1712257564155782700,2.49078271484375,-0.48503971099853516,1.7893362045288086,4.402445316314697
1712257564165781500,2.500781494140625,-0.4110755920410156,2.0200281143188477,5.164312839508057
1712257564175780400,2.5107802734375,-0.6323690414428711,2.150127649307251,5.918704509735107
1712257564185779200,2.520779296875,-0.7779178619384766,2.190528392791748,6.205329895019531
1712257564195778000,2.530778076171875,-0.8532295227050781,2.1213502883911133,6.136871814727783
1712257564205777000,2.54077685546875,-0.7062368392944336,2.034447193145752,5.958957672119141
1712257564215775700,2.550775634765625,-0.06047344207763672,1.7097389698028564,5.7158050537109375
1712257564225774600,2.560774658203125,0.6167135238647461,1.4281675815582275,5.159643173217773
1712257564235773200,2.570773193359375,1.0502204895019531,1.063077449798584,4.46753454208374
1712257564245772000,2.58077197265625,1.055302619934082,0.9112424850463867,3.900954246520996
1712257564255771000,2.59077099609375,0.6227731704711914,1.695589303970337,3.6422080993652344
1712257564265769700,2.600769775390625,0.09540081024169922,2.708907127380371,3.5517845153808594
1712257564275768600,2.6107685546875,-1.1020088195800781,3.1751677989959717,3.0613906383514404
1712257564285767400,2.620767333984375,-1.9726805686950684,2.5542423725128174,2.5047686100006104
1712257564295766300,2.630766357421875,-1.9299817085266113,0.9815369844436646,2.275414228439331
1712257564305765000,2.64076513671875,-1.171661376953125,-0.7532398700714111,2.0754613876342773
1712257564315763700,2.650763671875,-0.05388450622558594,-2.076613187789917,1.5334975719451904
1712257564325762300,2.66076220703125,1.1915254592895508,-2.8828582763671875,0.5293170213699341
1712257564335761200,2.67076123046875,1.9816522598266602,-3.44290828704834,-0.8101826310157776
1712257564345759700,2.680759765625,2.061131477355957,-3.8602652549743652,-2.173921823501587
1712257564355758600,2.690758544921875,1.4760284423828125,-4.328044891357422,-3.5823259353637695
1712257564365757200,2.700757080078125,0.46782493591308594,-4.831686019897461,-4.95341157913208
1712257564375756000,2.710756103515625,-0.38865089416503906,-5.349363327026367,-6.240677833557129
1712257564385754600,2.720754638671875,-0.9164514541625977,-5.880449295043945,-7.47276496887207
1712257564395753500,2.73075341796875,-0.9435396194458008,-6.424753665924072,-8.608614921569824
1712257564405752300,2.74075244140625,-0.45826244354248047,-7.077761650085449,-9.463227272033691
1712257564415751000,2.7507509765625,0.6997404098510742,-7.637252330780029,-10.349786758422852
1712257564425749800,2.760749755859375,1.7984399795532227,-8.212227821350098,-10.959931373596191
1712257564435748600,2.77074853515625,2.197641372680664,-8.828462600708008,-11.436586380004883
1712257564445747200,2.780747314453125,1.9893302917480469,-9.409661293029785,-11.82122802734375
1712257564455746000,2.79074609375,1.9746265411376953,-9.574625015258789,-12.852583885192871
1712257564465744600,2.80074462890625,1.4998912811279297,-9.99923324584961,-12.1331787109375
1712257564475743500,2.810743408203125,0.9197511672973633,-10.410985946655273,-11.657917022705078
1712257564485742300,2.820742431640625,0.18081378936767578,-10.30128288269043,-11.80474853515625
1712257564495741000,2.830740966796875,-0.02364635467529297,-10.020610809326172,-11.362421035766602
1712257564505739800,2.84073974609375,0.03584861755371094,-9.796189308166504,-9.971254348754883
1712257564515738600,2.850738525390625,0.21364784240722656,-9.483430862426758,-8.250834465026855
1712257564525737200,2.8607373046875,0.6733465194702148,-9.15243148803711,-6.123105525970459
1712257564535736000,2.870736083984375,0.9824914932250977,-8.792381286621094,-4.024367809295654
1712257564545735000,2.88073486328125,1.1255779266357422,-8.331357955932617,-1.7674546241760254
1712257564555733500,2.8907333984375,1.0988225936889648,-7.654241561889648,0.7398948669433594
1712257564565732400,2.900732421875,1.3528823852539062,-6.608122825622559,3.4856648445129395
1712257564575731000,2.91073095703125,1.6820945739746094,-5.089869976043701,6.525672912597656
1712257564585729800,2.920729736328125,1.8883399963378906,-2.93161678314209,9.5589017868042
1712257564595728600,2.930728759765625,2.0438451766967773,-0.6708758473396301,11.731256484985352
1712257564605727200,2.940727294921875,2.440211296081543,1.8604867458343506,12.913320541381836
1712257564615726000,2.95072607421875,2.126004219055176,3.869584321975708,13.331454277038574
1712257564625725000,2.960724853515625,0.9861917495727539,4.706552505493164,13.500274658203125
1712257564635723500,2.9707236328125,-0.5076513290405273,4.601352214813232,13.442477226257324
1712257564645722400,2.980722412109375,-2.057382583618164,4.057939052581787,13.309225082397461
1712257564655721000,2.990720947265625,-2.7481541633605957,3.6913247108459473,13.135380744934082
1712257564665719800,3.0007197265625,-2.715035915374756,3.6819069385528564,13.286405563354492
1712257564675718700,3.01071875,-2.3387656211853027,4.052195072174072,13.85914421081543
1712257564685717200,3.02071728515625,-1.6337146759033203,4.761919975280762,14.79358959197998
1712257564695716000,3.030716064453125,-0.8018178939819336,5.638116359710693,15.919097900390625
1712257564705714700,3.040714599609375,-0.08370780944824219,6.773674964904785,17.042238235473633
1712257564715713500,3.050713623046875,-0.23045063018798828,7.598629951477051,17.363447189331055
1712257564725712100,3.060712158203125,-1.1553955078125,7.664366722106934,16.950824737548828
1712257564735711000,3.0707109375,-2.1287617683410645,6.647570610046387,15.717827796936035
1712257564745709600,3.08070947265625,-2.611783027648926,5.078644752502441,14.228285789489746
1712257564755708400,3.09070849609375,-2.6647162437438965,3.3710217475891113,12.636011123657227
1712257564765707000,3.10070703125,-2.4543395042419434,1.7561686038970947,11.306038856506348
1712257564775705900,3.110705810546875,-2.2971978187561035,0.6639502048492432,10.28847885131836
1712257564785704400,3.120704345703125,-2.2556099891662598,-0.24724888801574707,8.802504539489746
1712257564795703300,3.130703369140625,-2.126577377319336,-1.2009668350219727,7.701347351074219
1712257564805702100,3.1407021484375,-1.75105619430542,-2.188723087310791,7.029664039611816
1712257564815700700,3.15070068359375,-1.345088005065918,-3.1245150566101074,6.181231498718262
1712257564825699600,3.160699462890625,-0.5311517715454102,-4.21389627456665,4.822758674621582
1712257564835698200,3.1706982421875,0.6207504272460938,-5.17102575302124,3.356820583343506
1712257564845697000,3.180697021484375,1.7261962890625,-6.1638569831848145,1.649369478225708
1712257564855696000,3.19069580078125,2.4211769104003906,-7.232049942016602,-0.478809118270874
1712257564865694500,3.200694580078125,3.104022979736328,-8.349928855895996,-2.8832366466522217
1712257564875693300,3.210693359375,3.9709367752075195,-9.377069473266602,-5.198259353637695
1712257564885692200,3.220692138671875,4.522041320800781,-10.197688102722168,-7.663817405700684
1712257564895690800,3.230690673828125,4.282130241394043,-10.665244102478027,-9.446344375610352
1712257564905689600,3.240689697265625,3.6316423416137695,-10.849559783935547,-11.043222427368164
1712257564915688400,3.2506884765625,2.6416826248168945,-10.970772743225098,-12.197749137878418
1712257564925981700,3.260981689453125,1.797602653503418,-11.176387786865234,-12.840540885925293
1712257564935980500,3.27098046875,1.6727046966552734,-11.470075607299805,-13.36171817779541
1712257564945979400,3.2809794921875,2.275271415710449,-11.737521171569824,-13.819903373718262
1712257564955978200,3.290978271484375,2.822460174560547,-11.843960762023926,-13.851790428161621
1712257564965976800,3.300976806640625,3.100229263305664,-11.715306282043457,-13.36733341217041
1712257564975975700,3.3109755859375,2.815903663635254,-11.332550048828125,-12.62243366241455
1712257564985974300,3.320974365234375,1.865708351135254,-10.778295516967773,-11.959291458129883
1712257564995973000,3.33097314453125,0.6879291534423828,-10.314919471740723,-11.314879417419434
1712257565005971700,3.3409716796875,-0.4678153991699219,-9.932909965515137,-10.540571212768555
1712257565015970600,3.350970458984375,-1.589505672454834,-9.583283424377441,-9.98448657989502
1712257565025969400,3.360969482421875,-2.1671037673950195,-9.259231567382812,-9.260109901428223
1712257565035968000,3.370968017578125,-2.34946346282959,-8.9575777053833,-8.251036643981934
1712257565045966800,3.380966796875,-2.090686798095703,-8.572603225708008,-7.022341251373291
1712257565055965700,3.390965576171875,-1.6334733963012695,-8.128816604614258,-5.536866188049316
1712257565065964500,3.400964599609375,-1.1137714385986328,-7.729156494140625,-3.737403631210327
1712257565075963400,3.41096337890625,-0.63775634765625,-7.235561847686768,-1.521829605102539
1712257565085962200,3.420962158203125,-0.2881355285644531,-6.627931118011475,0.4326983690261841
1712257565095961000,3.430961181640625,0.23510360717773438,-5.836638450622559,2.3753674030303955
1712257565105960000,3.4409599609375,1.1621828079223633,-4.974472999572754,4.2786126136779785
1712257565115958800,3.450958740234375,2.016752243041992,-3.8895201683044434,6.033915042877197
1712257565125957600,3.46095751953125,2.322169303894043,-2.6262240409851074,7.488683700561523
1712257565135956500,3.47095654296875,2.1929874420166016,-1.0268540382385254,8.70201301574707
1712257565145955300,3.480955322265625,1.7447624206542969,0.2427372932434082,9.57302474975586
1712257565155954200,3.4909541015625,1.329599380493164,1.2016775608062744,10.40561580657959
1712257565165953000,3.500953125,1.162642478942871,2.009101390838623,11.370073318481445
1712257565175952000,3.510951904296875,1.1930513381958008,2.8502752780914307,12.127132415771484
1712257565185950700,3.52095068359375,1.1994895935058594,2.825545310974121,12.063064575195312
1712257565195949600,3.530949462890625,1.2324638366699219,4.2013068199157715,13.124800682067871
1712257565205948400,3.540948486328125,1.167536735534668,4.653663635253906,13.992122650146484
1712257565215947300,3.550947265625,0.6661291122436523,5.1402997970581055,14.626667022705078
1712257565225946000,3.560946044921875,-0.17777156829833984,5.66294527053833,14.921031951904297
1712257565235945000,3.570945068359375,-1.0227699279785156,6.088076591491699,14.953715324401855
1712257565245943800,3.58094384765625,-1.688046932220459,6.178565502166748,14.746522903442383
1712257565255942700,3.590942626953125,-1.9502387046813965,5.956838607788086,14.352319717407227
1712257565265941500,3.60094140625,-1.8378863334655762,5.598889350891113,13.876986503601074
1712257565275940400,3.6109404296875,-1.659675121307373,5.088183403015137,13.422029495239258
1712257565285939200,3.620939208984375,-1.5492515563964844,4.62025260925293,12.988943099975586
1712257565295938000,3.63093798828125,-1.5923967361450195,4.276636123657227,12.543201446533203
1712257565305937000,3.64093701171875,-1.8825006484985352,3.87581205368042,12.028501510620117
1712257565315935700,3.650935791015625,-2.52053165435791,3.0779826641082764,11.337495803833008
1712257565325934600,3.6609345703125,-3.2561450004577637,2.2140674591064453,10.772357940673828
1712257565335933400,3.670933349609375,-3.9407811164855957,1.2846810817718506,10.232124328613281
1712257565345932300,3.680932373046875,-4.149797439575195,0.32178473472595215,9.586111068725586
1712257565355931100,3.69093115234375,-3.5738024711608887,-0.7419925928115845,8.872115135192871
1712257565365930000,3.700929931640625,-2.417710304260254,-2.0493643283843994,7.872279644012451
1712257565375928600,3.710928466796875,-0.9256505966186523,-3.7210373878479004,6.28289794921875
1712257565385927400,3.720927490234375,0.39380741119384766,-5.178009033203125,4.614263534545898
1712257565395926000,3.730926025390625,1.581197738647461,-6.381333351135254,2.8953211307525635
1712257565405924900,3.7409248046875,2.514632225036621,-7.1997575759887695,1.0589274168014526
1712257565415923500,3.75092333984375,3.1340560913085938,-7.662021636962891,-0.8799117803573608
1712257565425922300,3.76092236328125,3.512735366821289,-8.032041549682617,-2.8511621952056885
1712257565435921200,3.770921142578125,3.8620872497558594,-8.556347846984863,-5.288653373718262
1712257565445919700,3.780919677734375,3.9355955123901367,-9.212479591369629,-7.417446613311768
1712257565455918600,3.790918701171875,4.039562225341797,-9.996319770812988,-9.289633750915527
1712257565465917200,3.800917236328125,4.302582740783691,-10.757308959960938,-10.798940658569336
1712257565475916000,3.810916015625,4.41303825378418,-11.26936149597168,-11.71782398223877
1712257565485915000,3.820914794921875,4.1486310958862305,-11.46710205078125,-12.25487232208252
1712257565495913500,3.83091357421875,3.3110103607177734,-11.263803482055664,-12.43310260772705
1712257565505912300,3.840912353515625,2.371580123901367,-10.80412769317627,-12.358024597167969
1712257565515911200,3.8509111328125,1.5663509368896484,-10.433638572692871,-12.147172927856445
1712257565525909800,3.86090966796875,0.8916387557983398,-10.11101245880127,-11.776591300964355
1712257565535908600,3.87090869140625,0.15935802459716797,-9.903635025024414,-11.361862182617188
1712257565545907500,3.880907470703125,-0.588348388671875,-9.687737464904785,-11.050785064697266
1712257565555906000,3.890906005859375,-1.134018898010254,-9.513598442077637,-10.790401458740234
1712257565565905000,3.90090478515625,-1.398752212524414,-9.31645393371582,-10.567350387573242
1712257565575903500,3.910903564453125,-1.3740530014038086,-9.183428764343262,-10.221280097961426
1712257565585902300,3.92090234375,-1.3513612747192383,-9.053955078125,-9.633406639099121
1712257565595901200,3.930901123046875,-1.3767948150634766,-8.807191848754883,-8.795585632324219
1712257565605899800,3.940899658203125,-1.322336196899414,-8.432668685913086,-7.862766265869141
1712257565615898600,3.950898681640625,-0.9333648681640625,-7.988699913024902,-6.7755889892578125
1712257565625897500,3.9608974609375,-0.37094593048095703,-7.529805660247803,-5.307501792907715
1712257565635896000,3.97089599609375,0.27260494232177734,-7.104682445526123,-3.755744695663452
1712257565645895000,3.98089501953125,1.2989568710327148,-6.673770904541016,-1.968624234199524
1712257565655893500,3.9908935546875,2.4286184310913086,-6.247862339019775,-0.04441329091787338
1712257565665892400,4.000892333984375,3.3651819229125977,-5.636597633361816,1.8531906604766846
1712257565675891200,4.01089111328125,3.899928092956543,-4.800840854644775,3.729435682296753
1712257565685889800,4.020889892578125,4.0242509841918945,-3.581721782684326,5.602600574493408
1712257565695888600,4.030888671875,3.800633430480957,-2.350231647491455,6.837396621704102
1712257565705887500,4.040887451171875,3.2646427154541016,-1.129913330078125,8.002552032470703
1712257565715886000,4.050885986328125,2.312209129333496,0.003274083137512207,9.352709770202637
1712257565725885000,4.060885009765625,1.2746248245239258,1.0548875331878662,10.479048728942871
1712257565735883500,4.070883544921875,0.20041179656982422,2.0708975791931152,11.535568237304688
1712257565745882400,4.08088232421875,-1.1466741561889648,3.107137680053711,12.68515396118164
1712257565755881000,4.090880859375,-2.111638069152832,4.063737869262695,13.567703247070312
1712257565765879800,4.1008798828125,-2.455798625946045,4.86863899230957,14.056283950805664
1712257565775878400,4.11087841796875,-2.4675064086914062,5.382905006408691,14.119235038757324
1712257565785877200,4.120877197265625,-2.617337226867676,5.6831560134887695,13.830470085144043
1712257565795875800,4.130875732421875,-3.000214099884033,5.784353256225586,13.285372734069824
1712257565805874700,4.140874755859375,-3.6072845458984375,5.682008266448975,12.828171730041504
1712257565815873300,4.150873291015625,-4.056249618530273,5.629962921142578,12.631248474121094
1712257565825872100,4.1608720703125,-4.238990306854248,5.658842086791992,12.452601432800293
1712257565835870700,4.17087060546875,-4.203127861022949,5.749639511108398,12.197568893432617
1712257565845869600,4.18086962890625,-4.155257225036621,5.7266435623168945,11.88492202758789
1712257565855868400,4.190868408203125,-4.058243274688721,5.537650108337402,11.51046085357666
1712257565865867000,4.200866943359375,-3.964972972869873,5.039532661437988,10.88897705078125
1712257565875865900,4.210865966796875,-3.9012675285339355,4.360280513763428,10.187768936157227
1712257565885864400,4.220864501953125,-3.610199451446533,3.555234670639038,9.308985710144043
1712257565895863300,4.23086328125,-2.9316859245300293,2.6594789028167725,8.423131942749023
1712257565905862100,4.240862060546875,-2.041858196258545,1.6447463035583496,7.485071182250977
1712257565915860700,4.25086083984375,-1.2746171951293945,0.5724613666534424,6.447919845581055
1712257565925859600,4.260859619140625,-0.6761770248413086,-0.7174786329269409,5.252042293548584
1712257565935858400,4.2708583984375,-0.3734312057495117,-1.926182508468628,4.120076656341553
1712257565945857000,4.28085693359375,-0.28841590881347656,-3.076653003692627,2.9007718563079834
1712257565955856000,4.29085595703125,0.21362972259521484,-4.085813999176025,1.6177141666412354
1712257565965854700,4.300854736328125,1.0634021759033203,-4.786189079284668,0.22512373328208923
1712257565975853300,4.310853271484375,1.9411506652832031,-5.310063362121582,-1.1545138359069824
1712257565985852200,4.32085205078125,2.794814109802246,-5.846926212310791,-2.63991117477417
1712257565995850800,4.330850830078125,3.4718828201293945,-6.242945671081543,-3.890681505203247
1712257566005849600,4.340849609375,3.546783447265625,-6.6937947273254395,-5.002155780792236
1712257566015848400,4.350848388671875,2.847079277038574,-7.2713727951049805,-6.348063945770264
1712257566025847000,4.360846923828125,1.8913345336914062,-7.834321975708008,-7.809017658233643
1712257566035846000,4.370845947265625,1.3670387268066406,-8.178128242492676,-8.918089866638184
1712257566045844700,4.3808447265625,1.4896659851074219,-8.28940200805664,-9.676009178161621
1712257566055843300,4.39084326171875,2.0821590423583984,-8.003278732299805,-9.840581893920898
1712257566065842200,4.40084228515625,2.940380096435547,-7.444930076599121,-9.404119491577148
1712257566075840800,4.4108408203125,2.9446096420288086,-7.4594340324401855,-9.454487800598145
1712257566085839600,4.420839599609375,3.8737354278564453,-6.761525630950928,-8.555143356323242
1712257566095838500,4.43083837890625,3.7064104080200195,-6.6696929931640625,-8.600454330444336
1712257566105837300,4.44083740234375,3.3675403594970703,-6.828629493713379,-8.995655059814453
1712257566115836200,4.450836181640625,3.186939239501953,-7.402202129364014,-9.510747909545898
1712257566125835000,4.4608349609375,2.9431467056274414,-7.9790449142456055,-9.77723503112793
1712257566135834000,4.470834228515625,2.5514755249023438,-8.286429405212402,-9.84347915649414
1712257566145833000,4.4808330078125,2.1215009689331055,-8.141561508178711,-9.690848350524902
1712257566155832000,4.49083203125,1.6930456161499023,-7.649662017822266,-9.202342987060547
1712257566165831000,4.500830810546875,1.224745750427246,-7.080254554748535,-8.151169776916504
1712257566175830000,4.510830078125,1.0683679580688477,-6.355287551879883,-6.803775787353516
1712257566185829000,4.5208291015625,1.1359920501708984,-5.742097854614258,-5.106332302093506
1712257566195828200,4.530828125,1.0646772384643555,-5.007411003112793,-3.1923139095306396
1712257566205827300,4.540827392578125,0.8317184448242188,-4.178003311157227,-1.1920428276062012
1712257566215826200,4.550826171875,0.7259178161621094,-3.1751387119293213,0.6446923613548279
1712257566225825300,4.5608251953125,0.7724294662475586,-2.0281858444213867,2.3199474811553955
1712257566235824400,4.570824462890625,1.1198015213012695,-0.7647897005081177,3.8413987159729004
1712257566245823500,4.580823486328125,1.4481124877929688,0.11220240592956543,4.766281604766846
1712257566255822300,4.590822265625,1.5430212020874023,0.7429172992706299,5.615396022796631
1712257566265821400,4.600821533203125,1.2014265060424805,1.0531935691833496,6.417239665985107
1712257566275820500,4.610820556640625,0.28461742401123047,1.1582622528076172,6.9837446212768555
1712257566285819600,4.620819580078125,-1.0913476943969727,1.215888500213623,6.948380470275879
1712257566295818800,4.63081884765625,-2.9933128356933594,1.3135426044464111,6.535642623901367
1712257566305817900,4.64081787109375,-4.010735034942627,1.377805471420288,6.120634078979492
1712257566315817000,4.65081689453125,-4.178292751312256,1.4398722648620605,5.929496765136719
1712257566325815800,4.66081591796875,-3.725511074066162,1.5264074802398682,6.100298881530762
1712257566335815000,4.67081494140625,-2.9398245811462402,1.7928142547607422,6.375154972076416
1712257566345814000,4.68081396484375,-2.167710304260254,2.1378397941589355,6.814201354980469
1712257566355812900,4.690812744140625,-1.7568669319152832,2.5497548580169678,7.205420970916748
1712257566365812000,4.70081201171875,-1.9079804420471191,2.9607391357421875,7.342371463775635
1712257566375811000,4.71081103515625,-2.2568602561950684,3.2001230716705322,7.09223747253418
1712257566385810200,4.72081005859375,-2.6890902519226074,3.2316994667053223,6.3483381271362305
1712257566395809000,4.73080908203125,-3.1229796409606934,2.965527296066284,5.362983226776123
1712257566405808000,4.74080810546875,-3.3124728202819824,2.5098111629486084,4.256134033203125
1712257566415807000,4.750806884765625,-2.9221901893615723,1.9283685684204102,2.987992525100708
1712257566425805800,4.760805908203125,-2.2412729263305664,1.4946372509002686,2.1923272609710693
1712257566435804700,4.7708046875,-1.469799518585205,1.1776587963104248,1.5585130453109741
1712257566445803500,4.780803466796875,-0.5923366546630859,0.9144339561462402,1.1542192697525024
1712257566455802400,4.79080224609375,0.20541858673095703,0.7088444232940674,0.8100425601005554
1712257566465801000,4.800801025390625,0.7456836700439453,0.5164487361907959,0.5811604261398315
1712257566475799800,4.8107998046875,1.1576929092407227,0.32872796058654785,0.22799080610275269
1712257566485798700,4.820798583984375,1.3180465698242188,0.15282821655273438,-0.10942848026752472
1712257566495797200,4.83079736328125,1.4392986297607422,-0.07021236419677734,-0.4886927604675293
1712257566505795800,4.8407958984375,1.477644920349121,-0.3264799118041992,-0.8457574844360352
1712257566515794700,4.850794677734375,1.3722505569458008,-0.603271484375,-1.1561861038208008
1712257566525793300,4.860793212890625,1.1914043426513672,-0.8058484792709351,-1.3393746614456177
1712257566535792000,4.870792236328125,1.0085458755493164,-0.8954175710678101,-1.4425442218780518
1712257566545791000,4.880791015625,0.8953161239624023,-0.8663170337677002,-1.4262347221374512
1712257566555789600,4.89078955078125,0.7993783950805664,-0.7794244289398193,-1.3428367376327515
1712257566565788400,4.900788330078125,0.6848030090332031,-0.665925145149231,-1.27285897731781
1712257566575787300,4.910787353515625,0.5443897247314453,-0.6360912322998047,-1.236396312713623
1712257566585785900,4.920785888671875,0.43068885803222656,-0.5768676996231079,-1.2311971187591553
1712257566595784700,4.93078466796875,0.1665353775024414,-0.48353683948516846,-1.2234100103378296
1712257566605783300,4.940783203125,-0.1333017349243164,-0.3651123046875,-1.1285775899887085
1712257566615782100,4.9507822265625,-0.28459835052490234,-0.2350754737854004,-0.8320369720458984
1712257566625781000,4.960781005859375,-0.2804241180419922,-0.09695219993591309,-0.5732643604278564
1712257566635779600,4.970779541015625,-0.2312335968017578,0.043280839920043945,-0.5489392280578613
1712257566645778400,4.9807783203125,-0.15364456176757812,0.10834598541259766,-0.5930567383766174
1712257566655777000,4.990777099609375,-0.01134490966796875,0.017946243286132812,-0.6910152435302734
1712257566665775900,5.00077587890625,0.03553199768066406,-0.0661015510559082,-0.836377739906311
1712257566675774700,5.010774658203125,0.010875701904296875,-0.1294384002685547,-0.8931173086166382
1712257566685773300,5.020773193359375,0.048659324645996094,-0.1405954360961914,-0.7815179228782654
1712257566695772200,5.030772216796875,0.009759902954101562,-0.09369516372680664,-0.6320004463195801
1712257566705771000,5.04077099609375,-0.01724720001220703,0.003986835479736328,-0.5173965692520142
1712257566715769600,5.05076953125,0.0655832290649414,0.040529727935791016,-0.3855990171432495
1712257566725768400,5.0607685546875,0.10500431060791016,0.0016808509826660156,-0.35211217403411865
1712257566735767300,5.070767333984375,-0.0712423324584961,-0.08450078964233398,-0.3556690812110901
1712257566745766000,5.080765869140625,-0.22365379333496094,-0.1682577133178711,-0.39213162660598755
1712257566755764700,5.0907646484375,-0.26131725311279297,-0.14376091957092285,-0.45376741886138916
1712257566765763300,5.100763427734375,-0.1602182388305664,-0.10906767845153809,-0.3230340778827667
1712257566775762200,5.11076220703125,-0.09738922119140625,-0.06453466415405273,-0.2286827266216278
1712257566785761000,5.120760986328125,0.01855182647705078,-0.004423856735229492,-0.13001681864261627
1712257566795759600,5.130759521484375,0.08756542205810547,0.04547286033630371,-0.04158422350883484
1712257566805758500,5.140758544921875,0.017988204956054688,0.10136938095092773,0.0077973902225494385
1712257566815757300,5.15075732421875,-0.17131805419921875,0.14011287689208984,-0.011261552572250366
1712257566825756000,5.160755859375,-0.3032541275024414,0.15737032890319824,-0.016267746686935425
1712257566835754800,5.170754638671875,-0.25578880310058594,0.1658015251159668,-0.03144851326942444
1712257566845753300,5.18075341796875,-0.07215690612792969,0.16376662254333496,-0.04870602488517761
1712257566855752200,5.190752197265625,0.03900718688964844,0.1281585693359375,-0.15436142683029175
1712257566865750800,5.200750732421875,0.0848836898803711,0.10643219947814941,-0.21423925459384918
1712257566875749600,5.21074951171875,0.0803670883178711,0.09208488464355469,-0.2679375112056732
1712257566885748200,5.220748291015625,0.06492137908935547,0.017223596572875977,-0.23813532292842865
1712257566895747000,5.2307470703125,0.017772674560546875,-0.008559942245483398,-0.2550431191921234
1712257566905745700,5.24074560546875,-0.03642845153808594,0.015429019927978516,-0.25496843457221985
1712257566915744500,5.25074462890625,0.012415885925292969,0.027142047882080078,-0.16158947348594666
1712257566925743000,5.2607431640625,-0.04181194305419922,0.09198451042175293,-0.003649383783340454
1712257566935742000,5.270741943359375,-0.055434226989746094,0.16177940368652344,0.0548606812953949
1712257566945740500,5.280740478515625,-0.040406227111816406,0.14068102836608887,0.025979220867156982
1712257566955739400,5.290739501953125,-0.0661468505859375,0.06936764717102051,-0.06656315922737122
1712257566965738200,5.30073828125,-0.046486854553222656,-0.01151132583618164,-0.16207793354988098
1712257566975736800,5.31073681640625,-0.04621601104736328,-0.041452884674072266,-0.20144116878509521
1712257566985735700,5.320735595703125,-0.04148101806640625,-0.06807160377502441,-0.28974196314811707
1712257566995734300,5.330734375,-0.034552574157714844,-0.11805915832519531,-0.2909013628959656
1712257567005733000,5.340733154296875,-0.09228992462158203,-0.08408069610595703,-0.1920793056488037
1712257567015732000,5.35073193359375,-0.11633872985839844,-0.002557992935180664,-0.10910320281982422
1712257567025730600,5.36073046875,0.032154083251953125,0.1145017147064209,-0.027205079793930054
1712257567035729400,5.3707294921875,0.15899372100830078,0.16283607482910156,0.07912179827690125
1712257567045728300,5.380728271484375,0.1521463394165039,0.14557170867919922,0.08668655157089233
1712257567055726800,5.390726806640625,0.026032447814941406,0.07423973083496094,-0.038500040769577026
1712257567065725700,5.4007255859375,-0.12379741668701172,-0.02427816390991211,-0.1560308039188385
1712257567075724300,5.410724365234375,-0.1897287368774414,-0.10144329071044922,-0.17856040596961975
1712257567085723100,5.42072314453125,-0.13124370574951172,-0.055824995040893555,-0.18405140936374664
1712257567095722000,5.430721923828125,-0.12085151672363281,-0.014063358306884766,-0.1619127094745636
1712257567105720600,5.440720458984375,-0.08674049377441406,-0.024195194244384766,-0.09168758988380432
1712257567115719400,5.450719482421875,-0.031594276428222656,-0.09964799880981445,-0.10200124979019165
1712257567125718300,5.46071826171875,-0.013521194458007812,-0.15700745582580566,-0.21720659732818604
1712257567135716900,5.470716796875,-0.056511878967285156,-0.19388341903686523,-0.3614191710948944
1712257567145715700,5.4807158203125,0.012315750122070312,-0.21906709671020508,-0.43708014488220215
1712257567155714600,5.490714599609375,0.032998085021972656,-0.15952205657958984,-0.37498074769973755
1712257567165713200,5.500713134765625,0.054073333740234375,-0.07474493980407715,-0.18955117464065552
1712257567175712000,5.5107119140625,0.03755760192871094,0.14689111709594727,0.15956169366836548
1712257567185710800,5.5207109375,-0.09230995178222656,0.3254389762878418,0.31435659527778625
1712257567195709700,5.530709716796875,-0.16027545928955078,0.3943350315093994,0.36232054233551025
1712257567205708500,5.54070849609375,-0.13336658477783203,0.3482358455657959,0.31944507360458374
1712257567215707400,5.550707275390625,-0.13460254669189453,0.22129511833190918,0.20036974549293518
1712257567225706200,5.560706298828125,-0.2044963836669922,0.15779447555541992,0.039581120014190674
1712257567235705000,5.570705078125,-0.28424835205078125,0.19074153900146484,0.061411261558532715
1712257567245704000,5.580703857421875,-0.28770923614501953,0.21753668785095215,0.07516366243362427
1712257567255702800,5.590702880859375,-0.23647403717041016,0.22173857688903809,0.09633740782737732
1712257567265701600,5.60070166015625,-0.2122049331665039,0.1946866512298584,0.1251811385154724
1712257567275700500,5.610700439453125,-0.15500354766845703,0.11701083183288574,0.07148805260658264
1712257567285699300,5.62069921875,-0.045436859130859375,0.0718088150024414,0.008954957127571106
1712257567295698200,5.6306982421875,0.19373226165771484,0.025887727737426758,0.03132696449756622
1712257567305697000,5.640697021484375,0.3546285629272461,-0.024634599685668945,0.06543825566768646
1712257567315695900,5.65069580078125,0.3297863006591797,-0.04513716697692871,0.051866814494132996
1712257567325694700,5.66069482421875,0.2076435089111328,-0.07847166061401367,0.04168057441711426
1712257567335693600,5.670693603515625,0.009305953979492188,-0.039255380630493164,-0.0006884932518005371
1712257567345692400,5.6806923828125,-0.15783405303955078,-0.00042438507080078125,0.0013791024684906006
1712257567355691300,5.690691162109375,-0.13860321044921875,0.018242835998535156,0.020442485809326172
1712257567365690000,5.700690185546875,-0.08626842498779297,0.00024080276489257812,-0.00009600818157196045
1712257567375689000,5.71068896484375,0.04254341125488281,-0.09617996215820312,-0.10054653882980347
1712257567385687800,5.720687744140625,0.15445327758789062,-0.20160698890686035,-0.2901685833930969
1712257567395686700,5.730686767578125,0.1227407455444336,-0.28807640075683594,-0.40226805210113525
1712257567405685500,5.740685546875,-0.030736923217773438,-0.29204821586608887,-0.35829854011535645
1712257567415684600,5.7506845703125,-0.18124961853027344,-0.2526121139526367,-0.3312018811702728
1712257567425683500,5.760683349609375,-0.30277442932128906,-0.17571806907653809,-0.2932165563106537
1712257567435682300,5.770682373046875,-0.3765745162963867,-0.09095358848571777,-0.23941724002361298
1712257567445681200,5.78068115234375,-0.2782878875732422,-0.016916751861572266,-0.11541041731834412
1712257567455680000,5.790679931640625,-0.1230001449584961,0.0494389533996582,0.011271417140960693
1712257567465678800,5.800678955078125,-0.027998924255371094,0.09590744972229004,0.04371383786201477
1712257567475677700,5.810677734375,-0.002635955810546875,0.11201262474060059,0.06436491012573242
1712257567485676500,5.820676513671875,0.03243064880371094,0.11564230918884277,0.07116702198982239
1712257567495675100,5.830675048828125,-0.025676727294921875,0.09932923316955566,0.0474168062210083
1712257567505674000,5.840674072265625,-0.09803104400634766,0.06812167167663574,-0.04957491159439087
1712257567515672800,5.8506728515625,-0.0794057846069336,0.020097017288208008,-0.062078431248664856
1712257567525671400,5.86067138671875,-0.01767444610595703,0.012811422348022461,-0.03682810068130493
1712257567535670300,5.870670166015625,0.09418773651123047,0.04692983627319336,-0.015306055545806885
1712257567545668900,5.8806689453125,0.03831958770751953,0.06948733329772949,0.011728018522262573
1712257567555667700,5.890667724609375,0.061392784118652344,0.08969378471374512,0.009762704372406006
1712257567565666300,5.900666259765625,0.08662986755371094,0.036382198333740234,-0.06260916590690613
1712257567575665200,5.9106650390625,0.12615013122558594,-0.03584480285644531,-0.06971050798892975
1712257567585663700,5.920663818359375,0.12520503997802734,-0.04181647300720215,-0.0009880363941192627
1712257567595662600,5.93066259765625,0.12754344940185547,0.029931306838989258,0.06866109371185303
1712257567605661400,5.940661376953125,0.0033855438232421875,0.12204790115356445,0.1258966028690338
1712257567615660000,5.950659912109375,-0.05534553527832031,0.15645790100097656,0.16871550679206848
1712257567625659000,5.960658935546875,-0.05371570587158203,0.12456321716308594,0.20010048151016235
1712257567635657700,5.97065771484375,-0.07601642608642578,0.07606005668640137,0.08398178219795227
1712257567645656300,5.98065625,-0.06988811492919922,-0.007442474365234375,-0.07331913709640503
1712257567655655200,5.9906552734375,0.02409648895263672,-0.09115004539489746,-0.1782144457101822
1712257567665654000,6.000654052734375,0.030984878540039062,-0.14313817024230957,-0.2177979052066803
1712257567675652600,6.010652587890625,0.03242683410644531,-0.14509105682373047,-0.22375133633613586
1712257567685651500,6.0206513671875,0.02877521514892578,-0.12446355819702148,-0.0993250161409378
1712257567695650000,6.030650146484375,0.05389213562011719,-0.05583620071411133,0.056498587131500244
1712257567705649000,6.04064892578125,0.03866386413574219,-0.047988176345825195,0.12971025705337524
1712257567715647500,6.0506474609375,-0.06744670867919922,-0.009106636047363281,0.13329452276229858
1712257567725646300,6.060646240234375,-0.1350536346435547,-0.009216547012329102,0.15081572532653809
1712257567735645200,6.070645263671875,-0.15950965881347656,0.060038089752197266,0.14335480332374573
1712257567745643800,6.080643798828125,-0.1836700439453125,0.06606292724609375,0.10841625928878784
1712257567755642600,6.090642578125,-0.11166572570800781,-0.015540838241577148,-0.032157689332962036
1712257567765641500,6.100641357421875,-0.025521278381347656,-0.09403800964355469,-0.07811491191387177
1712257567775640000,6.11064013671875,0.02657794952392578,-0.110870361328125,-0.11315584182739258
1712257567785639000,6.120638916015625,0.0015726089477539062,-0.09265804290771484,-0.0977029800415039
1712257567795637800,6.1306376953125,0.050286293029785156,-0.029767990112304688,0.03067338466644287
1712257567805636400,6.14063623046875,0.082061767578125,0.029079914093017578,0.08427220582962036
1712257567815635200,6.15063525390625,0.054116249084472656,0.07788753509521484,0.044296979904174805
1712257567825633800,6.1606337890625,0.04081249237060547,0.075225830078125,0.02490401268005371
1712257567835632600,6.170632568359375,0.0799703598022461,0.03243708610534668,0.05331447720527649
1712257567845631500,6.180631591796875,0.12012290954589844,0.013561010360717773,0.03224113583564758
1712257567855630000,6.190630126953125,0.08149242401123047,0.04661679267883301,0.030115514993667603
1712257567865629000,6.20062890625,0.07252025604248047,0.03822517395019531,-0.05191050469875336
1712257567875627500,6.21062744140625,0.0957326889038086,0.0071392059326171875,-0.07202222943305969
1712257567885626400,6.22062646484375,0.07923412322998047,-0.02489924430847168,-0.07056735455989838
1712257567895625200,6.230625244140625,0.10158348083496094,-0.001333475112915039,-0.07604607939720154
1712257567905623800,6.240623779296875,0.06881523132324219,0.04875493049621582,-0.014439508318901062
1712257567915622700,6.25062255859375,0.03792285919189453,0.07896065711975098,0.00980338454246521
1712257567925621200,6.260621337890625,0.05419445037841797,0.07327055931091309,0.02331218123435974
1712257567935620000,6.2706201171875,0.07474708557128906,-0.009669780731201172,-0.08333177864551544
1712257567945618700,6.28061865234375,0.14087867736816406,-0.12408447265625,-0.20867593586444855
1712257567955617500,6.290617431640625,0.17374420166015625,-0.21540617942810059,-0.28261902928352356
1712257567965616000,6.3006162109375,0.049040794372558594,-0.23172998428344727,-0.218920037150383
1712257567975614700,6.31061474609375,-0.09434795379638672,-0.14203429222106934,-0.09138736128807068
1712257567985613600,6.320613525390625,-0.15114784240722656,-0.010602712631225586,0.055895209312438965
1712257567995612400,6.3306123046875,-0.14763259887695312,0.10021734237670898,0.11120486259460449
1712257568005611000,6.340611083984375,-0.19654178619384766,0.09292769432067871,0.12400631606578827
1712257568015609900,6.35060986328125,-0.2073040008544922,0.021570444107055664,0.0943303108215332
1712257568025608700,6.360608642578125,-0.2115945816040039,-0.013791084289550781,0.014686912298202515
1712257568035607300,6.370607177734375,-0.21883869171142578,-0.04002976417541504,-0.029203519225120544
1712257568045606100,6.380606201171875,-0.19066905975341797,-0.07411742210388184,-0.11664032191038132
1712257568055605000,6.39060498046875,-0.20585918426513672,-0.12636661529541016,-0.17267990112304688
1712257568065603600,6.400603515625,-0.17089176177978516,-0.12322473526000977,-0.17423924803733826
1712257568075602400,6.4106025390625,-0.052143096923828125,-0.09117388725280762,-0.1386706531047821
1712257568085601000,6.42060107421875,0.018744468688964844,-0.05906820297241211,-0.056854248046875
1712257568095599900,6.430599853515625,0.0154266357421875,-0.012573957443237305,-0.007191509008407593
1712257568105598500,6.440598388671875,0.014714241027832031,-0.00757598876953125,0.013602256774902344
1712257568115597300,6.450597412109375,0.014067649841308594,0.01634383201599121,0.0005961358547210693
1712257568125596200,6.46059619140625,-0.017635345458984375,0.05192875862121582,-0.03562179207801819
1712257568135594800,6.4705947265625,-0.09212970733642578,0.019231081008911133,-0.059076979756355286
1712257568145593600,6.480593505859375,-0.08728885650634766,-0.03869915008544922,-0.10342566668987274
1712257568155592400,6.490592529296875,-0.10891342163085938,-0.0770108699798584,-0.12333353608846664
1712257568165591000,6.500591064453125,-0.12632083892822266,-0.06058931350708008,-0.11491904407739639
1712257568175590000,6.51058984375,-0.12521076202392578,-0.025122642517089844,-0.1229458600282669
1712257568185588700,6.520588623046875,-0.06215095520019531,-0.03877544403076172,-0.14452223479747772
1712257568195587300,6.53058740234375,-0.020773887634277344,-0.059040069580078125,-0.17569983005523682
1712257568205586200,6.540586181640625,0.001377105712890625,-0.026340007781982422,-0.14630107581615448
1712257568215584800,6.550584716796875,-0.010071754455566406,-0.012445211410522461,-0.049430087208747864
1712257568225583600,6.56058349609375,-0.054900169372558594,0.029799222946166992,0.06707652658224106
1712257568235582500,6.57058251953125,-0.03936481475830078,0.07506442070007324,0.13653261959552765
1712257568245581300,6.580581298828125,0.008062362670898438,0.06732320785522461,0.17644661664962769
1712257568255580200,6.590580078125,0.08235740661621094,0.04816937446594238,0.21593794226646423
1712257568265579000,6.6005791015625,0.11385822296142578,0.01127767562866211,0.2086864560842514
1712257568275578000,6.610578125,0.0902099609375,-0.027620315551757812,0.10509097576141357
1712257568285577000,6.620576904296875,0.0063571929931640625,-0.08441996574401855,0.018404841423034668
1712257568295576000,6.630576171875,-0.049231529235839844,-0.10841941833496094,0.025514021515846252
1712257568305575200,6.6405751953125,-0.05251598358154297,-0.061570167541503906,-0.028747305274009705
1712257568315574000,6.650573974609375,0.02542400360107422,0.017058610916137695,-0.03887327015399933
1712257568325573000,6.660572998046875,0.05074501037597656,0.03070688247680664,-0.013557389378547668
1712257568335572200,6.670572265625,0.0020580291748046875,0.026713848114013672,0.03396028280258179
1712257568345571300,6.6805712890625,-0.01988983154296875,0.0020096302032470703,0.11444705724716187
1712257568355570200,6.690570068359375,0.03261566162109375,-0.01623702049255371,0.1348768174648285
1712257568365569300,6.7005693359375,0.06606388092041016,-0.0011625289916992188,0.1407558023929596
1712257568375568400,6.710568359375,0.10677528381347656,0.018490076065063477,0.10704328119754791
1712257568385567500,6.7205673828125,0.07329940795898438,0.014101743698120117,0.07312820851802826
1712257568395566600,6.730566650390625,-0.015215873718261719,-0.03837728500366211,0.04068294167518616
1712257568405565700,6.740565673828125,-0.07753849029541016,-0.02336883544921875,-0.02126401662826538
1712257568415564500,6.750564453125,-0.14950275421142578,-0.03936505317687988,-0.05751468241214752
1712257568425563600,6.760563720703125,-0.16656112670898438,-0.04528093338012695,-0.04179799556732178
1712257568435562800,6.770562744140625,-0.14305782318115234,-0.03865694999694824,-0.011773735284805298
1712257568445561900,6.780561767578125,-0.08616828918457031,-0.03863120079040527,0.010458782315254211
1712257568455561000,6.79056103515625,-0.01967620849609375,-0.0362551212310791,0.05356660485267639
1712257568465559800,6.800559814453125,-0.051522254943847656,-0.06186962127685547,0.055412158370018005
1712257568475559000,6.810558837890625,-0.08821487426757812,-0.08478736877441406,0.027894333004951477
1712257568485558000,6.82055810546875,-0.06999015808105469,-0.13346290588378906,-0.04479952156543732
1712257568495557000,6.83055712890625,-0.025791168212890625,-0.1519913673400879,-0.09064239263534546
1712257568505556000,6.840555908203125,0.06589317321777344,-0.12111234664916992,-0.06831453740596771
1712257568515555000,6.85055517578125,0.2002573013305664,-0.05507016181945801,-0.009493350982666016
1712257568525554200,6.86055419921875,0.26752376556396484,0.03035449981689453,-0.005237013101577759
1712257568535553300,6.87055322265625,0.23462295532226562,0.03981208801269531,0.005734086036682129
1712257568545552100,6.88055224609375,0.1278209686279297,0.03818511962890625,0.026311740279197693
1712257568555551200,6.89055126953125,0.01178741455078125,0.023139476776123047,0.04034291207790375
1712257568565550000,6.900550048828125,-0.0008602142333984375,0.03993844985961914,-0.0374419242143631
1712257568575548700,6.910548583984375,-0.046718597412109375,0.026858806610107422,-0.049399763345718384
1712257568585547500,6.920547607421875,-0.05860328674316406,0.01927947998046875,-0.036959245800971985
1712257568595546400,6.93054638671875,-0.03418159484863281,0.02704787254333496,-0.038613662123680115
1712257568605545200,6.940545166015625,-0.06700801849365234,0.03401541709899902,0.002070307731628418
1712257568615543800,6.950543701171875,-0.11425590515136719,0.036364078521728516,0.03860342502593994
1712257568625542700,6.960542724609375,-0.10180187225341797,0.056043148040771484,0.05671617388725281
1712257568635541200,6.970541259765625,-0.10141468048095703,0.006689310073852539,0.08665800094604492
1712257568645540000,6.9805400390625,-0.01739788055419922,-0.015534400939941406,0.0915665328502655
1712257568655538700,6.99053857421875,0.06403446197509766,-0.017709732055664062,0.09758585691452026
1712257568665537500,7.00053759765625,0.06635475158691406,-0.0026121139526367188,0.10738164186477661
1712257568675536400,7.010536376953125,0.047290802001953125,-0.012051582336425781,0.12371289730072021
1712257568685535000,7.020534912109375,0.02582550048828125,0.007297992706298828,0.06562960147857666
1712257568695533600,7.030533447265625,0.052181243896484375,0.010062694549560547,-0.005891323089599609
1712257568705532400,7.040532470703125,0.037787437438964844,-0.003887653350830078,-0.05667421221733093
1712257568715531300,7.05053125,0.0258026123046875,-0.053978681564331055,-0.07473762333393097
1712257568725529900,7.06052978515625,0.02091503143310547,-0.06551051139831543,-0.0822894275188446
1712257568735528700,7.07052880859375,0.032563209533691406,-0.06902956962585449,-0.07463322579860687
1712257568745527300,7.08052734375,0.04878425598144531,-0.021451473236083984,-0.028102919459342957
1712257568755526100,7.090526123046875,0.007716178894042969,-0.012786865234375,0.05334456264972687
1712257568765525000,7.10052490234375,-0.04985523223876953,-0.0026602745056152344,0.07149121165275574
1712257568775523600,7.110523681640625,-0.1167001724243164,0.06618261337280273,0.1341787576675415
1712257568785522400,7.1205224609375,-0.10888385772705078,0.11909365653991699,0.19720594584941864
1712257568795521300,7.130521240234375,-0.0837392807006836,0.1412804126739502,0.22619763016700745
1712257568805520000,7.140519775390625,-0.10368061065673828,0.12853479385375977,0.15287533402442932
1712257568815518700,7.150518798828125,-0.1186981201171875,0.05771756172180176,0.03495454788208008
1712257568825517300,7.160517333984375,-0.06934738159179688,0.021361589431762695,-0.01399967074394226
1712257568835516200,7.17051611328125,-0.013174057006835938,-0.01130533218383789,-0.07824146747589111
1712257568845515000,7.180514892578125,0.013821601867675781,-0.061606645584106445,-0.14725245535373688
1712257568855513600,7.190513671875,0.01874256134033203,-0.08141684532165527,-0.1558283567428589
1712257568865512400,7.200512451171875,0.009026527404785156,-0.07161569595336914,-0.06922388076782227
1712257568875511000,7.210510986328125,0.0637502670288086,-0.025065898895263672,0.0030041635036468506
1712257568885510000,7.220510009765625,0.1424083709716797,-0.004650592803955078,0.02594977617263794
1712257568895508700,7.2305087890625,0.14446640014648438,-0.03686213493347168,-0.043075963854789734
1712257568905507600,7.240507568359375,0.1057138442993164,-0.0735933780670166,-0.0819745808839798
1712257568915506200,7.250506103515625,0.05240821838378906,-0.07860565185546875,-0.10267236828804016
1712257568925505000,7.260505126953125,-0.010461807250976562,-0.01912522315979004,-0.10800328850746155
1712257568935503600,7.270503662109375,-0.07310104370117188,0.008244037628173828,-0.07925890386104584
1712257568945502500,7.28050244140625,-0.09717082977294922,0.008245229721069336,-0.03870059549808502
1712257568955501300,7.290501220703125,-0.11867332458496094,-0.009140491485595703,-0.029809966683387756
1712257568965500000,7.3005,-0.16407108306884766,-0.04580974578857422,-0.04783684015274048
1712257568975498800,7.310498779296875,-0.14731693267822266,-0.07971549034118652,-0.046346381306648254
1712257568985497600,7.32049755859375,-0.10210895538330078,-0.09810042381286621,-0.06902801990509033
1712257568995496200,7.33049609375,-0.01900959014892578,-0.09803271293640137,-0.12051504850387573
1712257569005495000,7.3404951171875,-0.010280609130859375,-0.07825565338134766,-0.11153890192508698
1712257569015493600,7.35049365234375,-0.0804290771484375,-0.05188179016113281,-0.10927307605743408
1712257569025492500,7.360492431640625,-0.13122081756591797,-0.040732622146606445,-0.12554866075515747
1712257569035491000,7.370490966796875,-0.19394969940185547,-0.044133663177490234,-0.13404321670532227
1712257569045490000,7.380489990234375,-0.22083473205566406,-0.06405305862426758,-0.07965697348117828
1712257569055488500,7.390488525390625,-0.18560028076171875,-0.042633771896362305,-0.0693049281835556
1712257569065487400,7.4004873046875,-0.14572715759277344,-0.003753662109375,0.007260411977767944
1712257569075486000,7.41048583984375,-0.057926177978515625,0.0902259349822998,0.1246204525232315
1712257569085484800,7.42048486328125,-0.00313568115234375,0.14893007278442383,0.23831067979335785
1712257569095483400,7.4304833984375,0.049996376037597656,0.1618940830230713,0.2568648159503937
1712257569105482200,7.440482177734375,0.09172248840332031,0.12491130828857422,0.2369842529296875
1712257569115480800,7.450480712890625,0.10004615783691406,0.07079958915710449,0.1708613783121109
1712257569125479700,7.460479736328125,0.06289386749267578,0.026262283325195312,0.06615123152732849
1712257569135478500,7.470478515625,0.040076255798339844,0.02008819580078125,-0.011103495955467224
1712257569145477000,7.48047705078125,0.03157806396484375,0.006819248199462891,-0.04158639907836914
1712257569155476000,7.49047607421875,0.03728485107421875,0.010840892791748047,-0.05636909604072571
1712257569165474800,7.500474853515625,0.047763824462890625,-0.013879776000976562,-0.07031038403511047
1712257569175473400,7.510473388671875,0.04883289337158203,-0.01768207550048828,-0.07495030760765076
1712257569185472300,7.52047216796875,-0.07422924041748047,-0.00860595703125,-0.03639562427997589
1712257569195471000,7.53047119140625,-0.10650253295898438,0.010737419128417969,0.012768805027008057
1712257569205469700,7.5404697265625,-0.12013435363769531,0.03437995910644531,0.03452572226524353
1712257569215468500,7.550468505859375,-0.06959915161132812,0.014277219772338867,0.026669025421142578
1712257569225467100,7.560467041015625,-0.04338645935058594,-0.04985523223876953,-0.06920324265956879
1712257569235466000,7.570466064453125,-0.017350196838378906,-0.1445457935333252,-0.1782955527305603
1712257569245464600,7.580464599609375,0.03741741180419922,-0.23680591583251953,-0.21822291612625122
1712257569255463400,7.59046337890625,0.024652481079101562,-0.20258879661560059,-0.1384057253599167
1712257569265462300,7.600462158203125,-0.06485939025878906,-0.13422203063964844,-0.064322829246521
1712257569275460900,7.6104609375,-0.15427875518798828,-0.03259778022766113,0.02803593873977661
1712257569285459700,7.620459716796875,-0.19076824188232422,0.03470349311828613,0.04902896285057068
1712257569295458600,7.63045849609375,-0.16361141204833984,0.04690694808959961,0.07757455110549927
1712257569305457200,7.64045703125,-0.10080242156982422,0.01469111442565918,0.11114370822906494
1712257569315456000,7.6504560546875,-0.05519294738769531,0.0032739639282226562,0.1938895583152771
1712257569325454800,7.660454833984375,-0.06043243408203125,0.02733135223388672,0.2339409589767456
1712257569335453400,7.670453369140625,-0.0513763427734375,0.02551889419555664,0.13628163933753967
1712257569345452300,7.680452392578125,-0.027703285217285156,-0.02275872230529785,0.06236612796783447
1712257569355451100,7.690451171875,0.0010929107666015625,-0.036295175552368164,0.03762948513031006
1712257569365450000,7.700449951171875,0.020720481872558594,-0.03922724723815918,0.025472164154052734
1712257569375449000,7.710448974609375,-0.009732246398925781,-0.02609848976135254,0.04636991024017334
1712257569385448000,7.720447998046875,-0.03769969940185547,0.003472566604614258,0.06728330254554749
1712257569395446800,7.73044677734375,-0.029519081115722656,0.03471732139587402,0.09899634122848511
1712257569405445600,7.740445556640625,0.0196533203125,0.038669586181640625,0.10584327578544617
1712257569415444500,7.750444580078125,0.0661611557006836,0.07238006591796875,0.16852271556854248
1712257569425443300,7.760443359375,0.047776222229003906,0.10937213897705078,0.20823630690574646
1712257569435442200,7.770442138671875,-0.0233612060546875,0.13208699226379395,0.19924330711364746
1712257569445441000,7.78044091796875,-0.012941360473632812,0.09173154830932617,0.12218531966209412
1712257569455440000,7.79043994140625,0.05018901824951172,0.06073617935180664,0.05049511790275574
1712257569465438700,7.800438720703125,0.10611820220947266,0.008197307586669922,0.05830374360084534
1712257569475437600,7.8104375,0.08910179138183594,0.0022034645080566406,0.03105369210243225
1712257569485436400,7.8204365234375,0.07481575012207031,0.014107942581176758,0.02489873766899109
1712257569495435300,7.830435302734375,0.06066417694091797,0.035071611404418945,0.013843834400177002
1712257569505434000,7.84043408203125,0.0902700424194336,0.03972458839416504,-0.010556459426879883
1712257569515433000,7.850432861328125,0.09808158874511719,0.025849342346191406,-0.03537335991859436
1712257569525431800,7.860431884765625,0.08612251281738281,0.013776779174804688,-0.006364554166793823
1712257569535430700,7.8704306640625,-0.03370952606201172,0.04022932052612305,-0.035585254430770874
1712257569545429500,7.880429443359375,-0.10811233520507812,0.06676268577575684,-0.05191132426261902
1712257569555428400,7.890428466796875,-0.16097068786621094,0.05985879898071289,-0.025455713272094727
1712257569565427500,7.900427490234375,-0.1418914794921875,0.0886988639831543,0.04740378260612488
1712257569575426000,7.910426025390625,-0.0939931869506836,0.0863809585571289,0.06586986780166626
1712257569585425000,7.9204248046875,-0.043723106384277344,0.07713961601257324,0.05946341156959534
1712257569595423700,7.930423828125,-0.0063228607177734375,-0.0047533512115478516,0.07507497072219849
1712257569605422600,7.940422607421875,0.05687236785888672,-0.08455252647399902,0.05043607950210571
1712257569615421400,7.95042138671875,0.1049032211303711,-0.12302350997924805,-0.01167324185371399
1712257569625420300,7.960420166015625,0.13077163696289062,-0.15687966346740723,-0.09167727828025818
1712257569635419100,7.970419189453125,0.1417083740234375,-0.1720905303955078,-0.13142162561416626
1712257569645418000,7.98041796875,0.09959220886230469,-0.1765444278717041,-0.11428433656692505
1712257569655416800,7.990416748046875,-0.08892059326171875,-0.12009000778198242,-0.0880550742149353
