time,seconds_elapsed,z,y,x
1715439382127411700,0.12741162109375,-0.4443025588989258,0.29106664657592773,0.17239050567150116
1715439382137421300,0.13742138671875,-0.4942598342895508,0.23331308364868164,0.24150022864341736
1715439382147431400,0.147431396484375,-0.4598217010498047,0.30054616928100586,0.27106773853302
1715439382157442300,0.1574423828125,-0.4427337646484375,0.337552547454834,0.2569432556629181
1715439382167453200,0.167453125,-0.3832359313964844,0.320035457611084,0.2513284385204315
1715439382177464300,0.17746435546875,-0.13572978973388672,0.37456560134887695,0.29051196575164795
1715439382187473700,0.1874736328125,0.0724782943725586,0.4450497627258301,0.29436108469963074
1715439382197479700,0.197479736328125,0.08063983917236328,0.4079718589782715,0.17683352530002594
1715439382207485700,0.207485595703125,-0.03243255615234375,0.18449163436889648,0.12571874260902405
1715439382217491700,0.21749169921875,-0.021185874938964844,0.04107332229614258,0.17219628393650055
1715439382227497700,0.227497802734375,-0.06882572174072266,-0.06409597396850586,0.1446332335472107
1715439382237503700,0.237503662109375,-0.05907440185546875,-0.14246368408203125,0.06471049785614014
1715439382247509800,0.247509765625,-0.04483604431152344,-0.14543581008911133,0.03501531481742859
1715439382257515800,0.257515869140625,-0.012685775756835938,-0.05331277847290039,0.08018253743648529
1715439382267521800,0.267521728515625,0.05053234100341797,0.06139087677001953,0.03616402670741081
1715439382277527600,0.277527587890625,0.029013633728027344,0.1615605354309082,-0.03276379033923149
1715439382287533600,0.287533447265625,-0.1342334747314453,0.19391298294067383,-0.09701153635978699
1715439382297539600,0.29753955078125,-0.2234039306640625,0.19953393936157227,-0.08305437117815018
1715439382307545600,0.307545654296875,-0.11243915557861328,0.19331932067871094,-0.04113683104515076
1715439382317551600,0.317551513671875,0.03565788269042969,0.19734811782836914,0.027699612081050873
1715439382327557600,0.3275576171875,0.02608203887939453,0.0998697280883789,0.11919661611318588
1715439382337563600,0.337563720703125,0.11869144439697266,0.06593894958496094,0.2493230700492859
1715439382347569700,0.347569580078125,0.26470470428466797,-0.03283119201660156,0.2896921634674072
1715439382357575700,0.35757568359375,0.36634063720703125,-0.08041095733642578,0.2670380771160126
1715439382367581700,0.367581787109375,0.3977680206298828,-0.10719108581542969,0.24375204741954803
1715439382377587500,0.37758740234375,0.3842792510986328,-0.09051132202148438,0.20562908053398132
1715439382387593500,0.387593505859375,0.28956127166748047,-0.03561735153198242,0.12385795265436172
1715439382397599500,0.397599609375,0.08216094970703125,0.04423952102661133,-0.09073176980018616
1715439382407605500,0.40760546875,-0.15757274627685547,0.09535026550292969,-0.26070404052734375
1715439382417611500,0.417611572265625,-0.30905818939208984,0.08785057067871094,-0.25333547592163086
1715439382427617500,0.427617431640625,-0.3472480773925781,0.038012027740478516,-0.15658070147037506
1715439382437623600,0.43762353515625,-0.29805946350097656,0.01164865493774414,-0.10690703243017197
1715439382447629600,0.447629638671875,-0.22838687896728516,-0.011507034301757812,-0.04495172202587128
1715439382457635600,0.457635498046875,-0.12403011322021484,-0.009157657623291016,0.03975078836083412
1715439382467641300,0.467641357421875,0.014740943908691406,-0.0013036727905273438,0.1571885496377945
1715439382477647400,0.4776474609375,0.17403030395507812,0.010615348815917969,0.20933395624160767
1715439382487653400,0.4876533203125,0.2653007507324219,0.011235713958740234,0.17788560688495636
1715439382497659400,0.497659423828125,0.26694583892822266,0.051885128021240234,0.08628383278846741
1715439382507665400,0.50766552734375,0.07730293273925781,0.048186302185058594,0.010202980600297451
1715439382517671400,0.51767138671875,-0.0098876953125,0.05396461486816406,-0.03590133786201477
1715439382527677400,0.527677490234375,-0.06726264953613281,0.08796930313110352,-0.1575939953327179
1715439382537683500,0.537683349609375,-0.13352203369140625,0.08954286575317383,-0.28909313678741455
1715439382547689500,0.547689453125,-0.0962371826171875,0.08810901641845703,-0.23344379663467407
1715439382557695500,0.557695556640625,0.07581710815429688,0.07849836349487305,-0.11508995294570923
1715439382567701200,0.567701171875,0.1979818344116211,0.05446958541870117,-0.07462607324123383
1715439382577707300,0.577707275390625,0.30963802337646484,0.06193208694458008,0.02738345041871071
1715439382587713300,0.58771337890625,0.30332279205322266,0.03848552703857422,0.09111234545707703
1715439382597719300,0.59771923828125,0.22791004180908203,0.008624076843261719,0.12244928628206253
1715439382607725300,0.607725341796875,0.11707782745361328,-0.008026123046875,0.14033856987953186
1715439382617731300,0.6177314453125,-0.0670480728149414,0.0037560462951660156,0.11174777150154114
1715439382627737300,0.6277373046875,-0.1687641143798828,0.040131568908691406,0.08400578051805496
1715439382637743400,0.637743408203125,-0.16601276397705078,0.0442962646484375,0.06150824576616287
1715439382647749400,0.647749267578125,-0.19222545623779297,0.0118865966796875,0.02015371434390545
1715439382657755400,0.65775537109375,-0.18611717224121094,-0.036940574645996094,-0.021266568452119827
1715439382667761200,0.66776123046875,-0.039938926696777344,-0.050116539001464844,0.01951173134148121
1715439382677767200,0.67776708984375,0.028041839599609375,-0.03881120681762695,0.064438596367836
1715439382687773200,0.687773193359375,0.04749870300292969,-0.022441387176513672,0.16234390437602997
1715439382697779200,0.697779296875,0.1228933334350586,-0.02001333236694336,0.22365829348564148
1715439382707785200,0.70778515625,0.2210092544555664,-0.023040294647216797,0.22246971726417542
1715439382717791200,0.717791259765625,0.16794109344482422,-0.023181438446044922,0.15062576532363892
1715439382727797200,0.72779736328125,0.07894515991210938,-0.015329360961914062,0.12395184487104416
1715439382737803300,0.73780322265625,0.0954904556274414,0.010420799255371094,0.08748991787433624
1715439382747809300,0.747809326171875,0.10766315460205078,0.03937482833862305,-0.054138027131557465
1715439382757815000,0.75781494140625,0.06351280212402344,0.05300760269165039,-0.1808178424835205
1715439382767821000,0.767821044921875,-0.021918296813964844,0.04216146469116211,-0.29700082540512085
1715439382777827000,0.7778271484375,-0.2561464309692383,-0.0024399757385253906,-0.3843550980091095
1715439382787833000,0.7878330078125,-0.10450077056884766,0.023261070251464844,-0.15619796514511108
1715439382797839000,0.797839111328125,-0.1011343002319336,-0.04600381851196289,-0.026137463748455048
1715439382807845000,0.80784521484375,-0.00392913818359375,-0.04295539855957031,0.03848390281200409
1715439382817851100,0.81785107421875,0.029847145080566406,0.008284568786621094,0.029768072068691254
1715439382827857200,0.827857177734375,-0.055367469787597656,0.06472063064575195,0.054426901042461395
1715439382837863200,0.83786328125,-0.09262466430664062,0.08823633193969727,0.10222715139389038
1715439382847869200,0.847869140625,-0.044857025146484375,0.06489038467407227,0.10293517261743546
1715439382857875000,0.857875,-0.03995037078857422,-0.0057048797607421875,0.09487530589103699
1715439382867881000,0.867880859375,-0.006083488464355469,-0.029490947723388672,0.12268564850091934
1715439382877887000,0.877886962890625,0.051833152770996094,-0.021913528442382812,0.10249997675418854
1715439382887893000,0.88789306640625,-0.07400226593017578,0.08280181884765625,-0.15724973380565643
1715439382897899000,0.89789892578125,-0.21693897247314453,0.09696578979492188,-0.37028610706329346
1715439382907905000,0.907905029296875,-0.3546257019042969,0.10482025146484375,-0.3064548373222351
1715439382917911000,0.9179111328125,-0.341461181640625,0.055106163024902344,-0.10959288477897644
1715439382927917000,0.9279169921875,-0.14589881896972656,-0.029658794403076172,0.060535527765750885
1715439382937923000,0.937923095703125,0.046545982360839844,-0.08503532409667969,0.14002686738967896
1715439382947929000,0.94792919921875,0.18017196655273438,-0.0846104621887207,0.21181756258010864
1715439382957934800,0.957934814453125,0.23271751403808594,-0.04868745803833008,0.17258840799331665
1715439382967940900,0.96794091796875,0.21490764617919922,0.008109569549560547,0.07537385821342468
1715439382977947000,0.97794677734375,0.14610862731933594,0.05835723876953125,-0.07134491950273514
1715439382987953000,0.987952880859375,0.04476451873779297,0.08086919784545898,-0.16180092096328735
1715439382997959000,0.997958984375,-0.05170726776123047,0.04929018020629883,-0.16719242930412292
1715439383007965000,1.00796484375,-0.0918121337890625,0.002548694610595703,-0.11100742965936661
1715439383017971000,1.017970947265625,-0.0005512237548828125,0.010448455810546875,-0.04375028982758522
1715439383027977000,1.02797705078125,0.1265277862548828,-0.004693031311035156,-0.05942137539386749
1715439383037983000,1.03798291015625,0.2470569610595703,-0.0058956146240234375,-0.0995715782046318
1715439383047988700,1.04798876953125,0.3379993438720703,0.03885173797607422,-0.078652024269104
1715439383057994800,1.057994873046875,0.45238494873046875,0.05679893493652344,0.0033707618713378906
1715439383068000800,1.068000732421875,0.5152788162231445,0.07048606872558594,0.03343546390533447
1715439383078006800,1.0780068359375,0.4853096008300781,0.0655827522277832,0.01705891638994217
1715439383088012800,1.0880126953125,0.3542671203613281,0.06186056137084961,-0.008035704493522644
1715439383098018800,1.098018798828125,0.05206584930419922,0.05667257308959961,-0.08979187905788422
1715439383108024800,1.10802490234375,-0.29296302795410156,0.029489994049072266,-0.13423621654510498
1715439383118030800,1.11803076171875,-0.3987617492675781,-0.012536048889160156,-0.08990944921970367
1715439383128036900,1.128036865234375,-0.40097904205322266,-0.0648188591003418,-0.08396705985069275
1715439383138043000,1.13804296875,-0.2630281448364258,-0.07186555862426758,-0.05359513312578201
1715439383148048600,1.148048583984375,-0.11350440979003906,-0.07363462448120117,-0.0893249437212944
1715439383158054700,1.1580546875,0.0056247711181640625,-0.01949930191040039,-0.1097407341003418
1715439383168060700,1.168060791015625,0.048371315002441406,0.0037751197814941406,-0.11443036794662476
1715439383178066700,1.178066650390625,0.0159912109375,0.03437042236328125,-0.11226418614387512
1715439383188072700,1.18807275390625,-0.095794677734375,0.054868221282958984,-0.12908242642879486
1715439383198079000,1.198078857421875,-0.1782207489013672,0.06696224212646484,-0.09410788863897324
1715439383208085000,1.2080849609375,-0.19941043853759766,0.029484272003173828,-0.03221140801906586
1715439383218091000,1.218091064453125,-0.1225881576538086,-0.014555931091308594,0.027184709906578064
1715439383228097000,1.228096923828125,0.013644218444824219,-0.04746580123901367,0.03755210340023041
1715439383238103000,1.23810302734375,0.10561561584472656,-0.052297115325927734,0.05839468538761139
1715439383248109000,1.248109130859375,0.1591167449951172,-0.06781530380249023,0.0944652259349823
1715439383258115000,1.258114990234375,0.17484283447265625,-0.10336732864379883,0.0985083132982254
1715439383268121000,1.26812109375,0.1580972671508789,-0.06915140151977539,0.05795106291770935
1715439383278127000,1.278127197265625,0.16106605529785156,-0.031981468200683594,0.020533844828605652
1715439383288133000,1.288133056640625,0.19747543334960938,-0.024680137634277344,-0.03395166993141174
1715439383298139400,1.298139404296875,0.21965503692626953,-0.018409252166748047,-0.016567885875701904
1715439383308145400,1.3081455078125,0.1903228759765625,0.010121345520019531,0.005747437477111816
1715439383318151400,1.3181513671875,0.1006631851196289,0.032744407653808594,0.009448006749153137
1715439383328157400,1.328157470703125,-0.02510547637939453,0.026643753051757812,-0.020081698894500732
1715439383338163500,1.33816357421875,-0.13994216918945312,-0.006524085998535156,-0.054819151759147644
1715439383348169500,1.34816943359375,-0.1880207061767578,0.000514984130859375,-0.03885485231876373
1715439383358175500,1.358175537109375,-0.17518234252929688,-0.014130592346191406,-0.0005017518997192383
1715439383368181500,1.368181396484375,-0.045452117919921875,-0.03686952590942383,0.018377870321273804
1715439383378187500,1.3781875,0.06335067749023438,-0.035871028900146484,-0.00398409366607666
1715439383388193500,1.388193603515625,0.09060478210449219,0.006863117218017578,-0.11826817691326141
1715439383398199800,1.39819970703125,-0.005391120910644531,0.04961729049682617,-0.16647084057331085
1715439383408205800,1.408205810546875,-0.08167266845703125,0.04123353958129883,-0.12209540605545044
1715439383418211800,1.4182119140625,-0.05812835693359375,0.028839111328125,-0.016715213656425476
1715439383428217900,1.4282177734375,0.040801048278808594,-0.03595447540283203,0.08306075632572174
1715439383438224000,1.438223876953125,0.10611534118652344,-0.0685272216796875,0.14029420912265778
1715439383448230000,1.44822998046875,0.14323806762695312,-0.07440471649169922,0.15105946362018585
1715439383458236000,1.45823583984375,0.1762990951538086,-0.040088653564453125,0.12976817786693573
1715439383468242000,1.468241943359375,0.15352153778076172,0.015020370483398438,-0.007923528552055359
1715439383478248000,1.478248046875,-0.00034046173095703125,0.045044898986816406,-0.15817570686340332
1715439383488254000,1.48825390625,-0.26089000701904297,0.03400611877441406,-0.233678936958313
1715439383498260200,1.49826025390625,-0.44857120513916016,0.008113384246826172,-0.12672413885593414
1715439383508266200,1.508266357421875,-0.4373922348022461,0.014505386352539062,-0.013017192482948303
1715439383518272300,1.518272216796875,-0.2818021774291992,-0.005035877227783203,-0.0005458593368530273
1715439383528278300,1.5282783203125,-0.1766185760498047,-0.02298450469970703,-0.01137472689151764
1715439383538284300,1.5382841796875,-0.04046344757080078,0.030359268188476562,0.021995455026626587
1715439383548290300,1.548290283203125,0.08424568176269531,0.04470014572143555,-0.005555823445320129
1715439383558296300,1.55829638671875,0.1793346405029297,0.02930307388305664,-0.04679682105779648
1715439383568302300,1.56830224609375,0.24090194702148438,0.007668972015380859,-0.050204239785671234
1715439383578308400,1.578308349609375,0.22713088989257812,-0.03893566131591797,-0.01196993887424469
1715439383588314000,1.588314208984375,0.16740798950195312,-0.06283855438232422,0.06845438480377197
1715439383598320000,1.598320068359375,0.08092021942138672,-0.04015827178955078,0.059025317430496216
1715439383608326100,1.608326171875,-0.06574153900146484,-0.03596973419189453,-0.021106258034706116
1715439383618332200,1.618332275390625,-0.14999103546142578,-0.03901958465576172,-0.054075658321380615
1715439383628338200,1.628338134765625,-0.16846752166748047,-0.025110244750976562,-0.049753375351428986
1715439383638344200,1.63834423828125,-0.08909893035888672,-0.03726482391357422,-0.05112684518098831
1715439383648350200,1.64835009765625,0.0258331298828125,-0.04308319091796875,-0.05310172587633133
1715439383658356200,1.658356201171875,0.10585308074951172,-0.02988290786743164,-0.06923945993185043
1715439383668362200,1.6683623046875,0.16125869750976562,0.0014772415161132812,-0.0331546813249588
1715439383678368300,1.6783681640625,0.19738292694091797,0.017372608184814453,-0.012309849262237549
1715439383688374000,1.6883740234375,0.20065879821777344,0.02232217788696289,-0.010680675506591797
1715439383698380000,1.698380126953125,0.16230106353759766,0.025751113891601562,-0.05581767112016678
1715439383708386000,1.708385986328125,0.16765594482421875,0.03257894515991211,-0.0671345517039299
1715439383718392000,1.71839208984375,0.13131046295166016,0.009699821472167969,-0.06503228098154068
1715439383728398000,1.728398193359375,0.08214092254638672,-0.009346485137939453,-0.020428091287612915
1715439383738404000,1.738404052734375,0.03417491912841797,-0.01937723159790039,-0.013432979583740234
1715439383748410000,1.74841015625,0.02000713348388672,-0.029321670532226562,-0.029806017875671387
1715439383758416100,1.758416015625,-0.03659248352050781,-0.024419784545898438,-0.013699114322662354
1715439383768422100,1.768422119140625,-0.05958843231201172,-0.019048690795898438,0.006647452712059021
1715439383778428000,1.778427978515625,-0.01639842987060547,-0.04654407501220703,0.022619515657424927
1715439383788434000,1.788433837890625,0.0024566650390625,-0.04994964599609375,-0.0030075013637542725
1715439383798440000,1.79843994140625,0.011262893676757812,-0.02450418472290039,-0.041609957814216614
1715439383808446000,1.808446044921875,0.04321861267089844,-0.02257394790649414,-0.037372246384620667
1715439383818452000,1.818451904296875,0.003941535949707031,-0.053551673889160156,-0.03215056657791138
1715439383828458000,1.8284580078125,-0.020659446716308594,-0.06509923934936523,-0.0008713603019714355
1715439383838464000,1.838464111328125,-0.007357597351074219,-0.06206798553466797,0.007769763469696045
1715439383848470000,1.848469970703125,-0.0038824081420898438,-0.04460906982421875,-0.007477700710296631
1715439383858476000,1.85847607421875,-0.04778099060058594,0.005972385406494141,-0.042119041085243225
1715439383868482000,1.86848193359375,-0.04870128631591797,0.023029804229736328,-0.015894636511802673
1715439383878487800,1.87848779296875,0.021233558654785156,-0.007647991180419922,0.06133492290973663
1715439383888493800,1.888493896484375,0.09546566009521484,-0.03918743133544922,0.1044451892375946
1715439383898499800,1.898499755859375,-0.024295806884765625,0.009290218353271484,0.04372824728488922
1715439383908505900,1.908505859375,-0.1851358413696289,0.03939342498779297,-0.030102640390396118
1715439383918511900,1.918511962890625,-0.32601451873779297,0.0012679100036621094,-0.1330053061246872
1715439383928518000,1.928517822265625,-0.3913078308105469,-0.03702974319458008,-0.12329576909542084
1715439383938524000,1.93852392578125,-0.28323936462402344,-0.05694103240966797,-0.02094276249408722
1715439383948530000,1.948530029296875,-0.09332752227783203,-0.03677082061767578,0.013519033789634705
1715439383958536000,1.958535888671875,0.15453624725341797,-0.00733184814453125,0.015627726912498474
1715439383968542000,1.9685419921875,0.29091453552246094,0.015202999114990234,-0.04749847948551178
1715439383978547700,1.978547607421875,0.36061763763427734,0.039284706115722656,-0.0854199156165123
1715439383988553700,1.9885537109375,0.38858985900878906,0.017242431640625,-0.06571861356496811
1715439383998559700,1.998559814453125,0.2717008590698242,-0.016754150390625,-0.05585457384586334
1715439384008565800,2.008565673828125,0.0681142807006836,0.004771709442138672,-0.04537792503833771
1715439384018571800,2.01857177734375,-0.0660848617553711,0.006925106048583984,-0.03874015808105469
1715439384028577800,2.028577880859375,-0.11833381652832031,-0.0185699462890625,-0.04204346239566803
1715439384038583800,2.038583740234375,-0.13265705108642578,-0.03774690628051758,-0.03207695484161377
1715439384048589800,2.04858984375,-0.0813589096069336,-0.013224601745605469,-0.01738569140434265
1715439384058595800,2.058595947265625,0.020636558532714844,-0.007491111755371094,-0.021633833646774292
1715439384068601600,2.0686015625,0.11637496948242188,0.00728607177734375,-0.0021648257970809937
1715439384078607600,2.078607666015625,0.17805194854736328,-0.035601139068603516,0.012094467878341675
1715439384088613600,2.088613525390625,0.17816829681396484,-0.04138803482055664,0.03124946355819702
1715439384098619600,2.09861962890625,0.20729446411132812,-0.034421443939208984,0.008680388331413269
1715439384108625700,2.108625732421875,0.22282028198242188,-0.024784088134765625,-0.03188449144363403
1715439384118631700,2.118631591796875,0.22051143646240234,-0.05063486099243164,-0.015280812978744507
1715439384128637700,2.1286376953125,0.15822505950927734,-0.06421041488647461,0.03482384979724884
1715439384138643700,2.138643798828125,0.0365142822265625,-0.04606294631958008,0.06215314567089081
1715439384148649700,2.148649658203125,-0.04061126708984375,-0.03800153732299805,0.04784274101257324
1715439384158655700,2.15865576171875,-0.06951141357421875,-0.010959625244140625,-0.003582671284675598
1715439384168661500,2.16866162109375,-0.07475852966308594,0.01166677474975586,-0.06911874562501907
1715439384178667500,2.17866748046875,-0.09459114074707031,0.011482715606689453,-0.04626714438199997
1715439384188673500,2.188673583984375,-0.09103107452392578,-0.00661468505859375,0.027576789259910583
1715439384198679600,2.198679443359375,-0.0831308364868164,-0.028573989868164062,0.05900318920612335
1715439384208685600,2.208685546875,-0.06609344482421875,-0.05931568145751953,0.07153931260108948
1715439384218691800,2.21869189453125,-0.05408954620361328,-0.0565032958984375,0.05550117790699005
1715439384228697900,2.22869775390625,-0.0799551010131836,-0.016073226928710938,-0.011686883866786957
1715439384238703900,2.238703857421875,-0.1906719207763672,0.024692535400390625,-0.13505031168460846
1715439384248710000,2.2487099609375,-0.31035327911376953,0.020345687866210938,-0.1456136256456375
1715439384258716000,2.2587158203125,-0.3025398254394531,-0.023204326629638672,-0.05973784625530243
1715439384268722000,2.268721923828125,-0.15004348754882812,-0.05913734436035156,0.013919174671173096
1715439384278728000,2.27872802734375,0.0186004638671875,-0.07065773010253906,0.03497377038002014
1715439384288734000,2.28873388671875,0.12397956848144531,-0.05047941207885742,0.015210151672363281
1715439384298740000,2.298739990234375,0.19101810455322266,-0.013892173767089844,0.0029845237731933594
1715439384308746000,2.30874609375,0.21070575714111328,0.020445823669433594,-0.030800089240074158
1715439384318752300,2.318752197265625,0.17871570587158203,0.029841899871826172,-0.02638068050146103
1715439384328758300,2.32875830078125,0.1005411148071289,-0.022777080535888672,-0.037732236087322235
1715439384338764300,2.338764404296875,0.07570838928222656,-0.06556367874145508,-0.034433700144290924
1715439384348770300,2.348770263671875,0.08458900451660156,-0.056487083435058594,-0.04013250023126602
1715439384358776300,2.3587763671875,-0.0057926177978515625,-0.014145374298095703,-0.13592876493930817
1715439384368782300,2.3687822265625,-0.05795478820800781,0.010487556457519531,-0.1612505465745926
1715439384378788400,2.378788330078125,-0.030059814453125,-0.015436172485351562,-0.13624674081802368
1715439384388794400,2.38879443359375,0.044211387634277344,-0.03575706481933594,-0.06463506072759628
1715439384398800400,2.39880029296875,0.1129608154296875,-0.03301525115966797,-0.002497471868991852
1715439384408806400,2.408806396484375,0.1153564453125,-0.008145332336425781,-0.001099027693271637
1715439384418812700,2.418812744140625,0.04740619659423828,0.020381450653076172,-0.002929471433162689
1715439384428818700,2.428818603515625,0.0514068603515625,0.024526596069335938,0.005138382315635681
1715439384438824700,2.43882470703125,0.05563163757324219,-0.037863731384277344,0.0037400946021080017
1715439384448830700,2.448830810546875,0.027256011962890625,-0.0623631477355957,0.02200905978679657
1715439384458836700,2.458836669921875,-0.04745960235595703,-0.04462385177612305,0.02318926900625229
1715439384468842800,2.4688427734375,-0.1022024154663086,-0.008162975311279297,-0.016344111412763596
1715439384478848800,2.478848876953125,-0.15660953521728516,0.0005340576171875,-0.0741041824221611
1715439384488854800,2.488854736328125,-0.23956012725830078,0.0019469261169433594,-0.10378927737474442
1715439384498860800,2.49886083984375,-0.2566499710083008,-0.017475605010986328,-0.08272453397512436
1715439384508866800,2.50886669921875,-0.19004249572753906,-0.029316425323486328,-0.09664289653301239
1715439384518873000,2.518873046875,-0.01244354248046875,-0.034520626068115234,-0.07913176715373993
1715439384528879000,2.528879150390625,0.26133155822753906,-0.011841297149658203,-0.015356488525867462
1715439384538885000,2.538885009765625,0.4379281997680664,-0.0018711090087890625,0.013713743537664413
1715439384548891100,2.54889111328125,0.4726877212524414,-0.010666370391845703,0.015009809285402298
1715439384558897200,2.558897216796875,0.3536539077758789,-0.01871967315673828,0.0031552165746688843
1715439384568903200,2.568903076171875,0.17203807830810547,-0.01507425308227539,0.02915254607796669
1715439384578909200,2.5789091796875,-0.05343437194824219,-0.021270275115966797,0.048802513629198074
1715439384588915200,2.588915283203125,-0.21460628509521484,-0.04491233825683594,0.06632699072360992
1715439384598921200,2.598921142578125,-0.2754640579223633,-0.05636119842529297,0.07229717075824738
1715439384608927200,2.60892724609375,-0.2565155029296875,-0.05582475662231445,0.07195034623146057
1715439384618933200,2.618933349609375,-0.18239116668701172,-0.06279706954956055,0.0331263430416584
1715439384628939300,2.628939208984375,-0.08188247680664062,-0.05434083938598633,0.005012542009353638
1715439384638945300,2.6389453125,0.026361465454101562,-0.022484302520751953,-0.002100985497236252
1715439384648951300,2.648951416015625,0.10497379302978516,-0.010815620422363281,-0.0070822276175022125
1715439384658957300,2.658957275390625,0.0885782241821289,-0.0190887451171875,-0.01005728542804718
1715439384668963300,2.66896337890625,0.072784423828125,-0.023157119750976562,0.007780898362398148
1715439384678969300,2.67896923828125,0.0008020401000976562,-0.041376590728759766,-0.021752826869487762
1715439384688975400,2.688975341796875,-0.037353515625,-0.07748937606811523,-0.032636940479278564
1715439384698981400,2.6989814453125,-0.03763580322265625,-0.11217880249023438,0.022360164672136307
1715439384708987100,2.708987060546875,0.008882522583007812,-0.10807466506958008,0.048752620816230774
1715439384718993200,2.7189931640625,0.08744144439697266,-0.07080650329589844,0.01876537874341011
1715439384728999200,2.728999267578125,0.1790628433227539,-0.015781879425048828,-0.030003318563103676
1715439384739005200,2.739005126953125,0.24648475646972656,0.013138771057128906,-0.06461258232593536
1715439384749011200,2.74901123046875,0.30000877380371094,0.010765552520751953,-0.028289634734392166
1715439384759017200,2.759017333984375,0.25525665283203125,0.01972055435180664,-0.03037426434457302
1715439384769023200,2.769023193359375,0.04251861572265625,0.050606727600097656,-0.1269325315952301
1715439384779029200,2.779029296875,-0.2005462646484375,0.0403437614440918,-0.11526653170585632
1715439384789035300,2.78903515625,-0.3424644470214844,-0.004030704498291016,-0.021756522357463837
1715439384799041300,2.799041259765625,-0.3095388412475586,-0.07262516021728516,0.06402033567428589
1715439384809047000,2.809047119140625,-0.16041183471679688,-0.1194157600402832,0.11148516833782196
1715439384819053000,2.819052978515625,0.005013465881347656,-0.10883378982543945,0.08456781506538391
1715439384829059000,2.82905908203125,0.07384490966796875,-0.0708155632019043,0.003562331199645996
1715439384839065000,2.839065185546875,0.07151985168457031,-0.029908180236816406,-0.09274407476186752
1715439384849071000,2.849071044921875,0.0034551620483398438,0.005336284637451172,-0.1624106466770172
1715439384859077000,2.8590771484375,0.007061004638671875,-0.006908416748046875,-0.16491833329200745
1715439384869083100,2.869083251953125,0.029494285583496094,-0.03316640853881836,-0.14435043931007385
1715439384879089200,2.879089111328125,0.0706319808959961,-0.026485443115234375,-0.07680720090866089
1715439384889095200,2.88909521484375,0.06443405151367188,-0.011322498321533203,-0.037946946918964386
1715439384899101000,2.899100830078125,0.06809616088867188,-0.0017614364624023438,-0.03301157057285309
1715439384909107000,2.90910693359375,0.034270286560058594,0.011890411376953125,-0.00018082186579704285
1715439384919113000,2.919113037109375,-0.013258934020996094,0.025588512420654297,0.04129365086555481
1715439384929119000,2.929118896484375,-0.060334205627441406,0.016155719757080078,0.014962212182581425
1715439384939125000,2.939125,-0.07438850402832031,-0.01529073715209961,-0.00321289524435997
1715439384949131000,2.949131103515625,0.0006275177001953125,-0.04973316192626953,-0.0034876875579357147
1715439384959137000,2.959136962890625,0.1072549819946289,-0.06458330154418945,-0.0005606357008218765
1715439384969143000,2.96914306640625,0.17016029357910156,-0.06588268280029297,-0.017344657331705093
1715439384979149000,2.979149169921875,0.1998739242553711,-0.05929899215698242,-0.024344628676772118
1715439384989155000,2.989155029296875,0.19704341888427734,-0.04514789581298828,0.006894292309880257
1715439384999160800,2.999160888671875,0.16687393188476562,-0.04700803756713867,0.010281157679855824
1715439385009166800,3.009166748046875,0.10011577606201172,-0.05935382843017578,0.02870994433760643
1715439385019172900,3.0191728515625,0.04417705535888672,-0.06262636184692383,0.03322025388479233
1715439385029179000,3.029178955078125,-0.04407691955566406,-0.060584068298339844,0.01371515728533268
1715439385039185000,3.039184814453125,-0.15046310424804688,-0.03356599807739258,-0.04367893934249878
1715439385049191000,3.04919091796875,-0.16191387176513672,-0.0333256721496582,-0.029945259913802147
1715439385059197000,3.059197021484375,-0.09380149841308594,-0.027099132537841797,-0.026079339906573296
1715439385069203000,3.069202880859375,-0.017744064331054688,-0.034461021423339844,-0.05976339802145958
1715439385079209000,3.079208984375,0.08068656921386719,-0.023049354553222656,-0.035785652697086334
1715439385089215000,3.089215087890625,0.1687793731689453,-0.027326583862304688,-0.02130214497447014
1715439385099220700,3.099220703125,0.2000560760498047,-0.02902078628540039,-0.02488255500793457
1715439385109226800,3.109226806640625,0.10939788818359375,-0.018486499786376953,-0.04591142758727074
1715439385119232800,3.119232666015625,-0.050276756286621094,-0.027144908905029297,-0.08414634317159653
1715439385129238800,3.12923876953125,-0.1375265121459961,-0.019882678985595703,-0.047275081276893616
1715439385139244800,3.139244873046875,-0.11584663391113281,-0.044144630432128906,-0.031862735748291016
1715439385149250800,3.149250732421875,-0.04783058166503906,-0.048435211181640625,-0.01327522099018097
1715439385159256800,3.1592568359375,-0.01390838623046875,-0.043236732482910156,0.00015910528600215912
1715439385169263000,3.16926318359375,-0.013607025146484375,-0.04735898971557617,-0.0003421064466238022
1715439385179269000,3.17926904296875,0.024261474609375,-0.02768564224243164,-0.015134297311306
1715439385189275100,3.189275146484375,0.04737091064453125,-0.022466182708740234,-0.0354914516210556
1715439385199281200,3.19928125,0.05611419677734375,-0.012900829315185547,0.00030019599944353104
1715439385209287200,3.209287109375,0.05563068389892578,-0.03709554672241211,0.02593829669058323
1715439385219293200,3.219293212890625,0.060443878173828125,-0.05256843566894531,0.03770731762051582
1715439385229299200,3.22929931640625,-0.028608322143554688,-0.030847549438476562,-0.015276799909770489
1715439385239305200,3.23930517578125,-0.1634998321533203,0.005095005035400391,-0.03365667536854744
1715439385249311200,3.249311279296875,-0.2169179916381836,-0.01450967788696289,-0.03875534236431122
1715439385259317200,3.259317138671875,-0.209197998046875,-0.050792694091796875,-0.03599231690168381
1715439385269323500,3.269323486328125,-0.17422199249267578,-0.075408935546875,-0.02544943429529667
1715439385279329500,3.27932958984375,-0.11210346221923828,-0.07506656646728516,-0.020838642492890358
1715439385289335600,3.28933544921875,-0.060624122619628906,-0.06023836135864258,0.00741646159440279
1715439385299341600,3.299341552734375,-0.028882980346679688,-0.02202129364013672,0.04218483716249466
1715439385309347600,3.30934765625,0.011793136596679688,-0.01749134063720703,0.02699068933725357
1715439385319353600,3.319353515625,0.009366989135742188,-0.01765298843383789,-0.061375293880701065
1715439385329359600,3.329359619140625,-0.03563499450683594,-0.012644290924072266,-0.1238301545381546
1715439385339365600,3.33936572265625,-0.0001697540283203125,-0.030622005462646484,-0.07686056941747665
1715439385349371600,3.34937158203125,0.16189002990722656,-0.05780792236328125,0.0029420852661132812
1715439385359377700,3.359377685546875,0.34099388122558594,-0.06744384765625,0.03019246831536293
1715439385369384000,3.369384033203125,0.40567970275878906,-0.06581497192382812,0.01920640841126442
1715439385379390000,3.379389892578125,0.35794830322265625,-0.058003902435302734,0.031369034200906754
1715439385389396000,3.38939599609375,0.21327686309814453,-0.024274349212646484,0.03794250264763832
1715439385399402000,3.399402099609375,0.014847755432128906,0.012958526611328125,0.01949121803045273
1715439385409408000,3.409407958984375,-0.19031238555908203,0.02251291275024414,-0.005247076041996479
1715439385419414000,3.4194140625,-0.26621150970458984,-0.012700557708740234,-0.0033533554524183273
1715439385429420000,3.429419921875,-0.2102956771850586,-0.026018142700195312,0.025283832103013992
1715439385439426000,3.439426025390625,-0.09010601043701172,-0.0518646240234375,0.010462436825037003
1715439385449432000,3.44943212890625,0.06575202941894531,-0.07728004455566406,-0.026929324492812157
1715439385459438000,3.45943798828125,0.19138240814208984,-0.07050228118896484,-0.04769987240433693
1715439385469444400,3.4694443359375,0.22626590728759766,-0.060686588287353516,-0.0476403571665287
1715439385479450400,3.479450439453125,0.14818191528320312,-0.06164360046386719,-0.07441036403179169
1715439385489456400,3.489456298828125,0.024123191833496094,-0.06692743301391602,-0.04345333203673363
1715439385499462400,3.49946240234375,-0.046692848205566406,-0.06622314453125,0.05337035655975342
1715439385509468400,3.509468505859375,-0.0652017593383789,-0.0924983024597168,0.10662493109703064
1715439385519474400,3.519474365234375,-0.008637428283691406,-0.07956695556640625,0.13102668523788452
1715439385529480400,3.52948046875,0.07052898406982422,-0.06685066223144531,0.08444812893867493
1715439385539486500,3.539486572265625,0.13472747802734375,-0.0411372184753418,0.04792438820004463
1715439385549492500,3.549492431640625,0.1751232147216797,-0.04566335678100586,0.016491089016199112
1715439385559498500,3.55949853515625,0.14046001434326172,-0.04253196716308594,-0.03832780569791794
1715439385569504800,3.5695048828125,0.07431983947753906,-0.0176544189453125,-0.06892464309930801
1715439385579510800,3.5795107421875,-0.013638496398925781,0.0009069442749023438,-0.07131820917129517
1715439385589516800,3.589516845703125,-0.1094970703125,0.0002346038818359375,-0.055249378085136414
1715439385599522800,3.599522705078125,-0.15714740753173828,0.0052013397216796875,-0.05841922014951706
1715439385609528800,3.60952880859375,-0.18112754821777344,-0.02629709243774414,-0.028341617435216904
1715439385619534800,3.619534912109375,-0.3900165557861328,-0.09173345565795898,-0.12088309228420258
1715439385629540900,3.629540771484375,-0.372467041015625,-0.037215232849121094,0.14669892191886902
1715439385639547000,3.639546875,-0.06917953491210938,0.028105735778808594,0.12229359149932861
1715439385649553000,3.649552978515625,0.09269905090332031,-0.02103137969970703,-0.08625327050685883
1715439385659559000,3.659558837890625,0.158477783203125,-0.05197715759277344,-0.08361242711544037
1715439385669565000,3.66956494140625,0.16771411895751953,-0.023208141326904297,-0.0411917045712471
1715439385679571000,3.679571044921875,0.09742450714111328,-0.005614757537841797,-0.11073462665081024
1715439385689577000,3.689576904296875,0.03331184387207031,-0.0076961517333984375,-0.21979612112045288
1715439385699583000,3.6995830078125,-0.10063648223876953,-0.01860809326171875,-0.27995628118515015
1715439385709588700,3.709588623046875,-0.2664909362792969,-0.02233600616455078,-0.27859818935394287
1715439385719594800,3.7195947265625,-0.37525177001953125,-0.09241771697998047,-0.32629382610321045
1715439385729600800,3.729600830078125,-0.5514841079711914,-0.13130760192871094,-0.30396491289138794
1715439385739606800,3.739606689453125,-0.36057186126708984,-0.022205829620361328,0.11858472228050232
1715439385749612800,3.74961279296875,-0.10412216186523438,-0.005177497863769531,-0.006441578269004822
1715439385759618800,3.759618896484375,0.07152271270751953,-0.009443283081054688,-0.3247930109500885
1715439385769624800,3.769624755859375,0.154022216796875,0.025736331939697266,-0.3913060426712036
1715439385779630800,3.779630859375,0.19666004180908203,0.04811286926269531,-0.2651693522930145
1715439385789636900,3.789636962890625,0.19103145599365234,0.01960277557373047,-0.2116277515888214
1715439385799643000,3.799642822265625,0.1662158966064453,-0.02126789093017578,-0.2946620583534241
1715439385809648600,3.809648681640625,0.18860530853271484,-0.04631519317626953,-0.3654317259788513
1715439385819654700,3.819654541015625,0.26718997955322266,-0.009451866149902344,-0.37720781564712524
1715439385829660700,3.82966064453125,0.36855411529541016,0.030768871307373047,-0.3875334560871124
1715439385839666700,3.839666748046875,0.44573402404785156,0.11083507537841797,-0.39209842681884766
1715439385849672700,3.849672607421875,0.48506832122802734,0.1451401710510254,-0.41409799456596375
1715439385859678700,3.8596787109375,0.5059432983398438,0.1345381736755371,-0.4777047038078308
1715439385869684700,3.869684814453125,0.5462636947631836,0.0892796516418457,-0.5831722021102905
1715439385879690800,3.879690673828125,0.5540199279785156,0.09440183639526367,-0.725269079208374
1715439385889696800,3.88969677734375,0.5624971389770508,0.11656332015991211,-0.893080472946167
1715439385899702800,3.899702880859375,0.594813346862793,0.11865115165710449,-1.0362263917922974
1715439385909708500,3.90970849609375,0.5939769744873047,0.06821036338806152,-1.1977248191833496
1715439385919714600,3.919714599609375,0.5794363021850586,0.0413355827331543,-1.281794548034668
1715439385929720600,3.929720458984375,0.4996976852416992,0.046949148178100586,-1.2924681901931763
1715439385939726600,3.9397265625,0.515869140625,0.07056260108947754,-1.3106105327606201
1715439385949732600,3.949732666015625,0.5322513580322266,0.10224771499633789,-1.449822187423706
1715439385959738600,3.959738525390625,0.4709033966064453,0.17223381996154785,-1.5789880752563477
1715439385969744600,3.96974462890625,0.3816099166870117,0.21710205078125,-1.6289300918579102
1715439385979750700,3.979750732421875,0.26412200927734375,0.2329118251800537,-1.6044508218765259
1715439385989756700,3.989756591796875,0.14214515686035156,0.24909496307373047,-1.471037745475769
1715439385999762400,3.999762451171875,0.0014638900756835938,0.22737503051757812,-1.3702986240386963
1715439386009768400,4.0097685546875,-0.038315773010253906,0.11979842185974121,-1.3261665105819702
1715439386019774500,4.0197744140625,-0.0586700439453125,0.036441802978515625,-1.1825681924819946
1715439386029780500,4.029780517578125,-0.04571056365966797,-0.00748896598815918,-0.9934095144271851
1715439386039786500,4.039786376953125,0.05760669708251953,-0.0882568359375,-0.9716848731040955
1715439386049792500,4.04979248046875,0.20831871032714844,-0.21164178848266602,-1.207059621810913
1715439386059798500,4.059798583984375,0.3305387496948242,-0.2647676467895508,-1.5042293071746826
1715439386069804500,4.069804443359375,0.4727792739868164,-0.34064579010009766,-1.7647817134857178
1715439386079810600,4.079810546875,0.46327781677246094,-0.3875246047973633,-1.7316291332244873
1715439386089816600,4.089816650390625,0.3069028854370117,-0.3757507801055908,-1.6554392576217651
1715439386099822600,4.099822509765625,0.056481361389160156,-0.3573648929595947,-1.5949372053146362
1715439386109828600,4.10982861328125,-0.1730813980102539,-0.3272056579589844,-1.6514474153518677
1715439386119834600,4.119834716796875,-0.42493247985839844,-0.33688926696777344,-1.8437950611114502
1715439386129840600,4.129840576171875,-0.6375560760498047,-0.3849012851715088,-1.977609395980835
1715439386139846700,4.1398466796875,-0.8929519653320312,-0.44110989570617676,-1.9463446140289307
1715439386149853000,4.14985302734375,-1.0774145126342773,-0.5509366989135742,-1.7095636129379272
1715439386159859000,4.15985888671875,-1.1826105117797852,-0.6308586597442627,-1.4665651321411133
1715439386169865000,4.169864990234375,-1.2188720703125,-0.670189380645752,-1.3575549125671387
1715439386179871000,4.17987109375,-1.0953788757324219,-0.6360776424407959,-1.2814874649047852
1715439386189877000,4.189876953125,-0.8212203979492188,-0.5161302089691162,-1.140631914138794
1715439386199883000,4.199883056640625,-0.6492023468017578,-0.40703320503234863,-0.8779335021972656
1715439386209889000,4.209888916015625,-0.5593576431274414,-0.43360185623168945,-0.7376696467399597
1715439386219895000,4.21989501953125,-0.5078935623168945,-0.5108482837677002,-0.6952000260353088
1715439386229901000,4.229901123046875,-0.5324726104736328,-0.582554817199707,-0.8276678323745728
1715439386239907000,4.239906982421875,-0.6952133178710938,-0.6481187343597412,-0.9443747401237488
1715439386249913300,4.249913330078125,-0.8962860107421875,-0.6764206886291504,-0.9309326410293579
1715439386259919400,4.25991943359375,-0.8446626663208008,-0.7425274848937988,-0.9123814702033997
1715439386269925400,4.26992529296875,-0.42589759826660156,-0.8152403831481934,-0.9086008667945862
1715439386279931400,4.279931396484375,0.030460357666015625,-0.831510066986084,-0.8138191103935242
1715439386289937400,4.2899375,0.38175106048583984,-0.8320567607879639,-0.34153521060943604
1715439386299943400,4.299943359375,0.7528657913208008,-0.8133563995361328,0.36544471979141235
1715439386309949400,4.309949462890625,1.2306299209594727,-0.806189775466919,0.9322024583816528
1715439386319955500,4.31995556640625,2.0316944122314453,-0.8534557819366455,1.5645380020141602
1715439386329961500,4.32996142578125,2.6282968521118164,-1.1023807525634766,1.9841593503952026
1715439386339967500,4.339967529296875,2.4538097381591797,-1.4614640474319458,2.1795578002929688
1715439386349973800,4.349973876953125,1.537541389465332,-1.5254284143447876,2.4545340538024902
1715439386359979800,4.359979736328125,0.3407707214355469,-1.3360921144485474,2.714993953704834
1715439386369985800,4.36998583984375,-0.8963861465454102,-1.100609302520752,2.474691390991211
1715439386379991800,4.37999169921875,-1.3092451095581055,-0.7372264862060547,2.8922829627990723
1715439386389997800,4.389997802734375,-1.3954334259033203,-0.3033769130706787,3.439681053161621
1715439386400003800,4.40000390625,-1.060110092163086,0.08944225311279297,3.7816567420959473
1715439386410009900,4.410009765625,-0.5356292724609375,0.12038993835449219,3.9960548877716064
1715439386420015900,4.420015869140625,-0.0917510986328125,-0.05424308776855469,3.823906898498535
1715439386430022000,4.43002197265625,-0.036704063415527344,-0.20910239219665527,3.7756667137145996
1715439386440028000,4.44002783203125,-0.15365314483642578,-0.316084623336792,3.7557942867279053
1715439386450034200,4.4500341796875,-0.22204208374023438,-0.32238173484802246,3.7059850692749023
1715439386460040200,4.460040283203125,-0.07397842407226562,-0.32952260971069336,3.505920886993408
1715439386470046200,4.470046142578125,0.04246044158935547,-0.34479641914367676,3.070125102996826
1715439386480052200,4.48005224609375,0.09412002563476562,-0.3450441360473633,2.8383629322052
1715439386490058200,4.490058349609375,0.13899993896484375,-0.35016918182373047,2.7498388290405273
1715439386500064300,4.500064208984375,-0.176849365234375,-0.36850666999816895,2.3445615768432617
1715439386510070300,4.5100703125,-0.6587800979614258,-0.36667728424072266,1.8915072679519653
1715439386520076300,4.520076171875,-1.0886602401733398,-0.37340497970581055,1.5645034313201904
1715439386530082300,4.530082275390625,-1.2964324951171875,-0.45589423179626465,1.2656110525131226
1715439386540088300,4.54008837890625,-1.1690969467163086,-0.5304334163665771,0.9733424782752991
1715439386550094600,4.550094482421875,-0.5970840454101562,-0.49857449531555176,1.0307207107543945
1715439386560100600,4.5601005859375,0.11468982696533203,-0.3609955310821533,1.108074426651001
1715439386570106600,4.570106689453125,0.8587932586669922,-0.1729907989501953,1.1889989376068115
1715439386580112600,4.580112548828125,1.2975597381591797,0.012037515640258789,1.2154076099395752
1715439386590118700,4.59011865234375,1.3502092361450195,0.2080669403076172,1.2665635347366333
1715439386600124700,4.600124755859375,1.246079444885254,0.3548433780670166,1.2788777351379395
1715439386610130700,4.610130615234375,1.0567865371704102,0.3957550525665283,1.1510155200958252
1715439386620136700,4.62013671875,0.7488431930541992,0.3128092288970947,0.8786990642547607
1715439386630142700,4.630142822265625,0.403564453125,0.227128267288208,0.6691601872444153
1715439386640148700,4.640148681640625,0.09681320190429688,0.31374287605285645,0.7626075744628906
1715439386650155000,4.650155029296875,0.09090042114257812,0.32201290130615234,0.6267591714859009
1715439386660161000,4.6601611328125,0.18006134033203125,0.14557623863220215,0.10890412330627441
1715439386670167000,4.6701669921875,0.2398691177368164,0.11376214027404785,0.04452323913574219
1715439386680173000,4.680173095703125,0.3422365188598633,-0.003215789794921875,0.01778435707092285
1715439386690179000,4.690178955078125,0.45911121368408203,-0.18310785293579102,-0.04191994667053223
1715439386700185000,4.70018505859375,0.5045881271362305,-0.10623979568481445,0.44324803352355957
1715439386710191000,4.710191162109375,0.6370849609375,-0.14602303504943848,0.5824032425880432
1715439386720197000,4.720197021484375,0.6508731842041016,-0.16025829315185547,0.43049943447113037
1715439386730203100,4.730203125,0.550532341003418,-0.15352964401245117,0.3438255786895752
1715439386740209200,4.740209228515625,0.4174528121948242,-0.36899352073669434,0.06936848163604736
1715439386750215200,4.750215087890625,0.21309566497802734,-0.5054299831390381,-0.34308433532714844
1715439386760221000,4.760220947265625,0.03235435485839844,-0.14996814727783203,0.03214240074157715
1715439386770227000,4.77022705078125,0.1715707778930664,0.20154833793640137,0.5443488359451294
1715439386780233000,4.78023291015625,0.36770057678222656,0.37096238136291504,0.4436190128326416
1715439386790239000,4.790239013671875,0.5394916534423828,0.3672666549682617,0.09787917137145996
1715439386800245000,4.800244873046875,0.7250900268554688,0.17145919799804688,-0.18824875354766846
1715439386810251000,4.8102509765625,0.9582138061523438,-0.2268989086151123,-0.5015822649002075
1715439386820257000,4.820257080078125,1.177292823791504,-0.481997013092041,-0.6058478355407715
1715439386830263000,4.830262939453125,1.1971549987792969,-0.1517009735107422,0.24282324314117432
1715439386840269000,4.84026904296875,0.9475021362304688,-0.02396678924560547,0.8868544697761536
1715439386850275000,4.850275146484375,0.5720491409301758,-0.20150351524353027,1.0619797706604004
1715439386860280800,4.86028076171875,0.27160167694091797,-0.38565754890441895,1.0740034580230713
1715439386870286800,4.870286865234375,0.16602420806884766,-0.476574182510376,1.1380001306533813
1715439386880292900,4.88029296875,-0.26230525970458984,-0.6068382263183594,0.668022632598877
1715439386890299000,4.890298828125,-0.7859926223754883,-0.7147202491760254,0.10705447196960449
1715439386900305000,4.900304931640625,-1.2305984497070312,-0.5274753570556641,0.04037332534790039
1715439386910311000,4.910310791015625,-1.4880104064941406,-0.27174973487854004,0.2863397002220154
1715439386920317000,4.92031689453125,-1.645308494567871,-0.05588865280151367,0.6331519484519958
1715439386930323000,4.930322998046875,-1.7793159484863281,0.16887712478637695,0.8371952772140503
1715439386940329000,4.940328857421875,-1.8416528701782227,0.30206727981567383,0.8164519667625427
1715439386950335000,4.9503349609375,-1.8751764297485352,0.20105862617492676,0.8213423490524292
1715439386960340700,4.9603408203125,-1.4870996475219727,0.32341790199279785,0.4496283531188965
1715439386970346800,4.9703466796875,-0.7183551788330078,0.4740922451019287,0.022900283336639404
1715439386980352800,4.980352783203125,-0.02129364013671875,0.444549560546875,-0.25130975246429443
1715439386990358800,4.99035888671875,0.6971445083618164,0.32913708686828613,-0.36212265491485596
1715439387000364800,5.00036474609375,1.2182483673095703,0.18132758140563965,-0.3017427921295166
1715439387010370800,5.010370849609375,1.6481800079345703,0.035962581634521484,-0.17594826221466064
1715439387020376800,5.020376953125,1.2653369903564453,-0.09702634811401367,0.020893633365631104
1715439387030382800,5.0303828125,0.7289581298828125,-0.2443397045135498,0.14318150281906128
1715439387040388900,5.040388916015625,0.2766895294189453,-0.36226892471313477,0.12208378314971924
1715439387050394600,5.05039453125,-0.05515861511230469,-0.3550581932067871,0.1538284420967102
1715439387060400600,5.060400634765625,-0.1867361068725586,-0.2871124744415283,0.2154914140701294
1715439387070406700,5.07040673828125,-0.20974159240722656,-0.3060305118560791,0.20367109775543213
1715439387080412700,5.08041259765625,-0.17195415496826172,-0.3072981834411621,0.22432571649551392
1715439387090418700,5.090418701171875,-0.0680246353149414,-0.32590174674987793,0.24287831783294678
1715439387100424700,5.1004248046875,0.011777877807617188,-0.315579891204834,0.2000369429588318
1715439387110430700,5.1104306640625,-0.03243064880371094,-0.2866802215576172,0.17916327714920044
1715439387120437000,5.12043701171875,-0.12898635864257812,-0.24741268157958984,0.15703058242797852
1715439387130443000,5.130443115234375,-0.03431415557861328,-0.17342042922973633,0.11420422792434692
1715439387140449000,5.140448974609375,0.1221780776977539,-0.09409379959106445,0.08264148235321045
1715439387150455000,5.150455078125,0.2066020965576172,-0.015202999114990234,0.07391691207885742
1715439387160461000,5.1604609375,0.20476722717285156,-0.02759242057800293,0.11116862297058105
1715439387170467000,5.170467041015625,0.1933460235595703,-0.08799147605895996,0.1088666319847107
1715439387180473000,5.18047314453125,0.2057962417602539,-0.11508035659790039,0.04322689771652222
1715439387190479000,5.19047900390625,0.2372903823852539,-0.0950310230255127,0.06620776653289795
1715439387200485000,5.200485107421875,0.27814579010009766,-0.027888059616088867,0.15301662683486938
1715439387210491100,5.2104912109375,0.2089252471923828,-0.028348922729492188,0.1459481120109558
1715439387220497400,5.220497314453125,0.09681034088134766,-0.07697105407714844,0.16068768501281738
1715439387230503400,5.23050341796875,0.06156349182128906,-0.14980721473693848,0.20930910110473633
1715439387240509400,5.240509521484375,0.06980419158935547,-0.19001150131225586,0.2118787169456482
1715439387250515500,5.250515380859375,0.03572368621826172,-0.20325899124145508,0.16943097114562988
1715439387260521500,5.260521484375,-0.03592491149902344,-0.22246623039245605,0.1252979040145874
1715439387270527500,5.270527587890625,-0.05002307891845703,-0.21762347221374512,0.10612624883651733
1715439387280533500,5.280533447265625,-0.05485057830810547,-0.22171592712402344,0.056455016136169434
1715439387290539500,5.29053955078125,-0.041169166564941406,-0.1816883087158203,0.08422833681106567
1715439387300545500,5.300545654296875,0.03407764434814453,-0.18421411514282227,0.15538156032562256
1715439387310551600,5.310551513671875,0.1043100357055664,-0.19675683975219727,0.22901087999343872
1715439387320557800,5.320557861328125,0.10767269134521484,-0.18149876594543457,0.26352566480636597
1715439387330563800,5.330563720703125,0.10147762298583984,-0.19531798362731934,0.2631874680519104
1715439387340569900,5.34056982421875,0.10477924346923828,-0.2569427490234375,0.25186318159103394
1715439387350575900,5.350575927734375,0.1272897720336914,-0.2662489414215088,0.2691442668437958
1715439387360582000,5.360581787109375,0.11176395416259766,-0.3050405979156494,0.262442022562027
1715439387370588000,5.370587890625,0.029779434204101562,-0.29224467277526855,0.18530452251434326
1715439387380594000,5.380593994140625,-0.06117057800292969,-0.256176233291626,0.11137235164642334
1715439387390600000,5.390599853515625,-0.09910297393798828,-0.16289615631103516,0.040871620178222656
1715439387400606000,5.40060595703125,-0.11300849914550781,-0.11714434623718262,-0.051108598709106445
1715439387410612000,5.410612060546875,-0.10312938690185547,-0.09465479850769043,-0.11833244562149048
1715439387420618200,5.4206181640625,-0.12223148345947266,-0.09993314743041992,-0.09560239315032959
1715439387430624300,5.430624267578125,-0.11301326751708984,-0.13258123397827148,-0.04536658525466919
1715439387440630300,5.44063037109375,-0.04147148132324219,-0.17101407051086426,-0.03369873762130737
1715439387450636300,5.45063623046875,-0.018335342407226562,-0.19470429420471191,-0.03373372554779053
1715439387460642300,5.460642333984375,-0.09904289245605469,-0.22314167022705078,0.06060445308685303
1715439387470648300,5.4706484375,-0.2253894805908203,-0.28883886337280273,0.13098174333572388
1715439387480654300,5.480654296875,-0.30277538299560547,-0.2956559658050537,0.154200941324234
1715439387490660400,5.490660400390625,-0.2474050521850586,-0.24880194664001465,0.13067016005516052
1715439387500666400,5.500666259765625,-0.0423736572265625,-0.16434359550476074,0.11341702938079834
1715439387510672400,5.51067236328125,0.17364501953125,-0.08210206031799316,0.09765356779098511
1715439387520678700,5.5206787109375,0.3112611770629883,-0.022005558013916016,0.08315765857696533
1715439387530684700,5.5306845703125,0.39069461822509766,0.0015726089477539062,0.0735633373260498
1715439387540690700,5.540690673828125,0.29514217376708984,-0.029603242874145508,0.06775790452957153
1715439387550696700,5.55069677734375,0.16373920440673828,-0.08965468406677246,0.10349705815315247
1715439387560702700,5.56070263671875,0.053421974182128906,-0.16314387321472168,0.12418758869171143
1715439387570708700,5.570708740234375,-0.04568767547607422,-0.19752979278564453,0.09268710017204285
1715439387580714800,5.58071484375,-0.06790351867675781,-0.16481351852416992,0.029583990573883057
1715439387590720800,5.590720703125,-0.08053302764892578,-0.15551018714904785,-0.05673623085021973
1715439387600726800,5.600726806640625,-0.09784126281738281,-0.16935205459594727,-0.03424394130706787
1715439387610732800,5.61073291015625,-0.05350494384765625,-0.18308210372924805,0.041713178157806396
1715439387620739000,5.620739013671875,0.02353382110595703,-0.16942977905273438,0.0731981098651886
1715439387630745000,5.6307451171875,0.17545318603515625,-0.1159510612487793,0.028926312923431396
1715439387640751000,5.640751220703125,0.2554187774658203,-0.0861501693725586,0.03210878372192383
1715439387650757000,5.650757080078125,0.08056163787841797,-0.04562544822692871,0.0502474308013916
1715439387660763100,5.66076318359375,-0.21884536743164062,-0.019007444381713867,0.013898372650146484
1715439387670769200,5.67076904296875,-0.3447742462158203,-0.0363306999206543,-0.057523131370544434
1715439387680775200,5.680775146484375,-0.2858867645263672,-0.09730029106140137,-0.06908160448074341
1715439387690781200,5.69078125,-0.24265003204345703,-0.08939504623413086,0.012595534324645996
1715439387700787200,5.700787109375,-0.18174457550048828,-0.11769223213195801,0.0638054609298706
1715439387710793200,5.710793212890625,-0.1600208282470703,-0.15804672241210938,0.008814811706542969
1715439387720799500,5.720799560546875,-0.18616008758544922,-0.14463353157043457,-0.01393038034439087
1715439387730805500,5.730805419921875,-0.2029123306274414,-0.14388489723205566,-0.01365441083908081
1715439387740811500,5.7408115234375,-0.19149112701416016,-0.13686776161193848,0.043576598167419434
1715439387750817500,5.750817626953125,-0.20406341552734375,-0.1380016803741455,0.15295815467834473
1715439387760823600,5.760823486328125,-0.1743297576904297,-0.13759899139404297,0.19605395197868347
1715439387770829600,5.77082958984375,-0.079437255859375,-0.13579201698303223,0.17374324798583984
1715439387780835600,5.780835693359375,0.09868907928466797,-0.1104426383972168,0.15283280611038208
1715439387790841600,5.790841552734375,0.1658306121826172,0.002852201461791992,-0.07477980852127075
1715439387800847600,5.80084765625,0.15674209594726562,0.28249406814575195,-0.6909613609313965
1715439387810853600,5.810853515625,0.15726089477539062,0.31167006492614746,-0.702284574508667
1715439387820860000,5.82085986328125,0.11995506286621094,0.03391838073730469,-0.28439486026763916
1715439387830866000,5.830865966796875,0.10181903839111328,0.22230291366577148,-0.471699059009552
1715439387840872000,5.840871826171875,-0.07141494750976562,0.016546249389648438,-0.33225691318511963
1715439387850878000,5.8508779296875,-0.1754302978515625,-0.13948822021484375,-0.08306044340133667
1715439387860884000,5.860884033203125,-0.3057365417480469,-0.27875852584838867,0.14728593826293945
1715439387870890000,5.870889892578125,-0.4104127883911133,-0.367382287979126,0.30222150683403015
1715439387880896000,5.88089599609375,-0.42902469635009766,-0.36258363723754883,0.37717556953430176
1715439387890901800,5.89090185546875,-0.30190467834472656,-0.30802464485168457,0.33009910583496094
1715439387900907800,5.90090771484375,-0.09732723236083984,-0.23343467712402344,0.3309364914894104
1715439387910913800,5.910913818359375,0.06122112274169922,-0.15439462661743164,0.33571159839630127
1715439387920919800,5.920919921875,0.1746835708618164,-0.09081315994262695,0.352664589881897
1715439387930925800,5.93092578125,0.2156057357788086,-0.04735994338989258,0.2967381775379181
1715439387940931800,5.940931884765625,0.40206336975097656,-0.057485103607177734,0.2367812693119049
1715439387950937900,5.950937744140625,0.6759042739868164,-0.07162046432495117,0.23580347001552582
1715439387960943900,5.96094384765625,0.8151330947875977,-0.12569093704223633,0.23855777084827423
1715439387970950000,5.970949951171875,0.6337175369262695,-0.16725897789001465,0.18999844789505005
1715439387980956000,5.980955810546875,0.305633544921875,-0.2165825366973877,0.15464702248573303
1715439387990961700,5.990961669921875,0.0629568099975586,-0.29301917552948,0.10002738237380981
1715439388000967700,6.0009677734375,-0.05391979217529297,-0.3375815153121948,0.0715445876121521
1715439388010973700,6.0109736328125,-0.06592845916748047,-0.3648892641067505,0.0878591239452362
1715439388020979700,6.020979736328125,-0.031203269958496094,-0.3473621606826782,0.15834084153175354
1715439388030985700,6.03098583984375,0.04965972900390625,-0.28642475605010986,0.20268166065216064
1715439388040991700,6.04099169921875,0.15260791778564453,-0.22638750076293945,0.20220059156417847
1715439388050997800,6.050997802734375,0.20221710205078125,-0.1684718132019043,0.16246330738067627
1715439388061003800,6.061003662109375,0.1429595947265625,-0.08002352714538574,0.14077246189117432
1715439388071009800,6.071009765625,0.07559776306152344,-0.027512311935424805,0.11912953853607178
1715439388081015800,6.081015869140625,-0.07039356231689453,0.018293142318725586,0.10805442929267883
1715439388091021600,6.091021484375,-0.2609720230102539,0.06330060958862305,0.12647593021392822
1715439388101027600,6.101027587890625,-0.4156484603881836,0.09000635147094727,0.15977612137794495
1715439388111033600,6.11103369140625,-0.5116119384765625,0.11825227737426758,0.19416192173957825
1715439388121039600,6.12103955078125,-0.5641555786132812,0.13000178337097168,0.2202848196029663
1715439388131045600,6.131045654296875,-0.531672477722168,0.13505220413208008,0.20015084743499756
1715439388141051600,6.1410517578125,-0.4438352584838867,0.1285996437072754,0.14283746480941772
1715439388151057700,6.1510576171875,-0.3485078811645508,0.09608626365661621,0.08193331956863403
1715439388161063700,6.161063720703125,-0.27869701385498047,0.07999849319458008,0.04573705792427063
1715439388171069700,6.171069580078125,-0.2056589126586914,0.01865410804748535,0.02013760805130005
1715439388181075500,6.181075439453125,-0.11048698425292969,-0.03109145164489746,-0.013270437717437744
1715439388191081500,6.19108154296875,0.10089778900146484,-0.07994461059570312,0.02153158187866211
1715439388201087500,6.20108740234375,0.3280601501464844,-0.11547279357910156,0.06233382225036621
1715439388211093500,6.211093505859375,0.44379425048828125,-0.15779542922973633,0.06104758381843567
1715439388221099500,6.221099609375,0.4921445846557617,-0.16883563995361328,0.048895061016082764
1715439388231105800,6.231105712890625,0.4693717956542969,-0.1911778450012207,-0.0037456154823303223
1715439388241111800,6.24111181640625,0.4332122802734375,-0.2058180570602417,-0.02453327178955078
1715439388251117800,6.251117919921875,0.34154224395751953,-0.2222994565963745,-0.017982423305511475
1715439388261123800,6.261123779296875,0.1998910903930664,-0.2540169954299927,-0.06831681728363037
1715439388271129900,6.2711298828125,0.10787200927734375,-0.22478806972503662,-0.04691573977470398
1715439388281135900,6.281135986328125,0.022133827209472656,-0.21034371852874756,-0.025841355323791504
1715439388291142000,6.291141845703125,-0.07642078399658203,-0.17206501960754395,-0.019337177276611328
1715439388301148000,6.30114794921875,-0.03719139099121094,-0.10443282127380371,0.014689475297927856
1715439388311154000,6.31115380859375,0.062313079833984375,-0.022861480712890625,0.04185253381729126
1715439388321160000,6.321159912109375,0.13186359405517578,0.03843402862548828,0.057918429374694824
1715439388331166200,6.331166259765625,0.14388561248779297,0.07916378974914551,0.045060425996780396
1715439388341172200,6.341172119140625,0.15592193603515625,0.09464359283447266,0.02283349633216858
1715439388351178200,6.35117822265625,0.13977909088134766,0.06615066528320312,-0.041790127754211426
1715439388361184300,6.361184326171875,0.04877185821533203,-0.010097980499267578,-0.0638989508152008
1715439388371190300,6.371190185546875,-0.10180950164794922,-0.07628703117370605,-0.10015466809272766
1715439388381196300,6.3811962890625,-0.24054622650146484,-0.0891108512878418,-0.13547417521476746
1715439388391202300,6.391202392578125,-0.34900379180908203,-0.07671308517456055,-0.13186615705490112
1715439388401208300,6.401208251953125,-0.4042034149169922,-0.04373311996459961,-0.1171870231628418
1715439388411214300,6.41121435546875,-0.36936283111572266,-0.013877391815185547,-0.08138653635978699
1715439388421220400,6.421220458984375,-0.2788047790527344,-0.00652313232421875,-0.029361248016357422
1715439388431226600,6.4312265625,-0.1662893295288086,-0.0031251907348632812,0.05233597755432129
1715439388441232600,6.441232666015625,-0.0746011734008789,-0.03202629089355469,0.11921665072441101
1715439388451238700,6.45123876953125,0.04368305206298828,-0.08353114128112793,0.17019206285476685
1715439388461244700,6.46124462890625,0.11758899688720703,-0.11074399948120117,0.18624135851860046
1715439388471250700,6.471250732421875,0.2185344696044922,-0.12848162651062012,0.1724158525466919
1715439388481256700,6.481256591796875,0.28491973876953125,-0.137406587600708,0.12359324097633362
1715439388491262700,6.4912626953125,0.26558494567871094,-0.1333024501800537,0.0071173906326293945
1715439388501268700,6.501268798828125,0.20430850982666016,-0.10181355476379395,-0.0897548496723175
1715439388511274800,6.511274658203125,0.1582965850830078,-0.09012889862060547,-0.10924455523490906
1715439388521280800,6.52128076171875,0.12743568420410156,-0.10774445533752441,-0.11276125907897949
1715439388531287000,6.531287109375,0.09262371063232422,-0.14465880393981934,-0.11461612582206726
1715439388541293000,6.54129296875,0.11028003692626953,-0.15295934677124023,-0.06385040283203125
1715439388551299000,6.551299072265625,0.2360210418701172,-0.17085742950439453,0.06635409593582153
1715439388561305000,6.56130517578125,0.3693504333496094,-0.21818554401397705,0.23111757636070251
1715439388571311000,6.57131103515625,0.45844173431396484,-0.29508328437805176,0.3678833842277527
1715439388581317000,6.581317138671875,0.49480342864990234,-0.3782615661621094,0.4493699073791504
1715439388591323100,6.5913232421875,0.41341686248779297,-0.41135740280151367,0.452267050743103
1715439388601329200,6.6013291015625,0.2254037857055664,-0.35643815994262695,0.3489287495613098
1715439388611335200,6.611335205078125,0.016908645629882812,-0.22726190090179443,0.17863938212394714
1715439388621341200,6.621341064453125,-0.12256431579589844,-0.07533764839172363,0.03705364465713501
1715439388631347500,6.631347412109375,-0.1753702163696289,0.08524727821350098,-0.05167245864868164
1715439388641353500,6.641353515625,-0.1852254867553711,0.18826580047607422,-0.08672153949737549
1715439388651359500,6.651359375,-0.17156124114990234,0.22031950950622559,-0.11896207928657532
1715439388661365500,6.661365478515625,-0.16283798217773438,0.21483922004699707,-0.11925467848777771
1715439388671371500,6.67137158203125,-0.1730337142944336,0.18628549575805664,-0.08791813254356384
1715439388681377500,6.68137744140625,-0.23476696014404297,0.11132574081420898,-0.06332719326019287
1715439388691383600,6.691383544921875,-0.35190296173095703,0.03785991668701172,-0.06912267208099365
1715439388701389600,6.7013896484375,-0.4437274932861328,-0.009561777114868164,-0.07714879512786865
1715439388711395600,6.7113955078125,-0.43086910247802734,-0.0683126449584961,-0.02364063262939453
1715439388721401600,6.721401611328125,-0.32916831970214844,-0.1150057315826416,0.06575953960418701
1715439388731408000,6.731407958984375,-0.2530527114868164,-0.1362779140472412,0.13248687982559204
1715439388741414000,6.741413818359375,-0.1832590103149414,-0.12782764434814453,0.12994688749313354
1715439388751420000,6.751419921875,-0.10532474517822266,-0.10030579566955566,0.056137919425964355
1715439388761426000,6.761426025390625,-0.07565498352050781,-0.08763933181762695,-0.03859952092170715
1715439388771432000,6.771431884765625,-0.060486793518066406,-0.07057690620422363,-0.1483035385608673
1715439388781438000,6.78143798828125,-0.012536048889160156,-0.04432320594787598,-0.2729722261428833
1715439388791444000,6.79144384765625,0.034679412841796875,0.014467000961303711,-0.38475358486175537
1715439388801450000,6.801449951171875,0.08572578430175781,0.07274246215820312,-0.4333195388317108
1715439388811456000,6.8114560546875,0.16413211822509766,0.07369828224182129,-0.41080793738365173
1715439388821462000,6.8214619140625,0.23649215698242188,0.055767059326171875,-0.32372573018074036
1715439388831468300,6.83146826171875,0.30293941497802734,0.009398698806762695,-0.18388605117797852
1715439388841474300,6.841474365234375,0.34954166412353516,-0.060771942138671875,-0.09148657321929932
1715439388851480300,6.851480224609375,0.3579568862915039,-0.09851312637329102,-0.012499243021011353
1715439388861486300,6.861486328125,0.30062294006347656,-0.12816834449768066,0.05790400505065918
1715439388871492400,6.871492431640625,0.1692190170288086,-0.1496593952178955,0.06423640251159668
1715439388881498400,6.881498291015625,0.00257110595703125,-0.15770936012268066,0.05626964569091797
1715439388891504400,6.89150439453125,-0.14711380004882812,-0.13273119926452637,0.006846487522125244
1715439388901510400,6.901510498046875,-0.22844314575195312,-0.09344244003295898,-0.035548120737075806
1715439388911516400,6.911516357421875,-0.26617908477783203,-0.05382537841796875,-0.028464823961257935
1715439388921522700,6.921522705078125,-0.28461265563964844,-0.027915239334106445,-0.03386387228965759
1715439388931528700,6.93152880859375,-0.33122825622558594,0.022670984268188477,-0.03669828176498413
1715439388941534700,6.94153466796875,-0.2832508087158203,0.04611492156982422,-0.02356123924255371
1715439388951540700,6.951540771484375,-0.16120147705078125,0.03817582130432129,-0.020590275526046753
1715439388961546800,6.961546630859375,-0.027345657348632812,0.017230749130249023,-0.00023421645164489746
1715439388971552800,6.971552734375,0.05711555480957031,-0.0033605098724365234,0.051054030656814575
1715439388981558800,6.981558837890625,0.08847332000732422,-0.019580841064453125,0.04378819465637207
1715439388991564800,6.991564697265625,0.08651065826416016,-0.059865474700927734,0.041016459465026855
1715439389001570800,7.00157080078125,0.032958030700683594,-0.1094815731048584,0.04860362410545349
1715439389011576800,7.011576904296875,-0.019637107849121094,-0.1441175937652588,0.03877493739128113
1715439389021583000,7.0215830078125,-0.010169029235839844,-0.14479470252990723,0.0023583173751831055
1715439389031589000,7.031589111328125,0.0650014877319336,-0.13093113899230957,-0.05168193578720093
1715439389041595100,7.04159521484375,0.14840030670166016,-0.13645315170288086,-0.07676035165786743
1715439389051601200,7.05160107421875,0.21183300018310547,-0.15252304077148438,-0.0969805121421814
1715439389061607200,7.061607177734375,0.26513004302978516,-0.11816215515136719,-0.07968682050704956
1715439389071613200,7.07161328125,0.2755241394042969,-0.07688307762145996,-0.049910783767700195
1715439389081619200,7.081619140625,0.16363048553466797,-0.02860116958618164,-0.022189199924468994
1715439389091625200,7.091625244140625,0.006646156311035156,-0.005383491516113281,0.004419803619384766
1715439389101631200,7.10163134765625,-0.12430953979492188,0.022766590118408203,0.0070648193359375
1715439389111637200,7.11163720703125,-0.24402809143066406,0.04725360870361328,0.004352360963821411
1715439389121643300,7.121643310546875,-0.31993865966796875,0.06914210319519043,-0.012562870979309082
1715439389131649300,7.131649169921875,-0.28200817108154297,0.05981779098510742,-0.05656173825263977
1715439389141655000,7.141655029296875,-0.24963092803955078,0.0660560131072998,-0.09354034066200256
1715439389151661000,7.1516611328125,-0.1944742202758789,0.0687570571899414,-0.1050061285495758
1715439389161667000,7.1616669921875,-0.1215963363647461,0.05353736877441406,-0.12060952186584473
1715439389171673000,7.171673095703125,-0.050037384033203125,0.006051778793334961,-0.0937650203704834
1715439389181679000,7.18167919921875,0.029737472534179688,-0.05941057205200195,-0.01081758737564087
1715439389191685000,7.19168505859375,0.0564117431640625,-0.09574532508850098,0.06547197699546814
1715439389201691100,7.201691162109375,0.05436134338378906,-0.12674546241760254,0.14458638429641724
1715439389211697200,7.211697265625,0.08055782318115234,-0.15247082710266113,0.22170065343379974
1715439389221703200,7.221703125,0.16773700714111328,-0.16907858848571777,0.24198666214942932
1715439389231709200,7.231709228515625,0.23511409759521484,-0.17311739921569824,0.2307608425617218
1715439389241715000,7.24171484375,0.19355201721191406,-0.15558385848999023,0.2016650140285492
1715439389251721000,7.251720947265625,0.10584354400634766,-0.1251506805419922,0.16459313035011292
1715439389261727000,7.26172705078125,0.052468299865722656,-0.07133722305297852,0.13724875450134277
1715439389271733000,7.27173291015625,0.03740406036376953,-0.0365297794342041,0.13197234272956848
1715439389281739000,7.281739013671875,0.022337913513183594,-0.03915071487426758,0.11100754141807556
1715439389291745000,7.2917451171875,0.030930519104003906,-0.045827388763427734,0.08089461922645569
1715439389301751000,7.3017509765625,0.09123420715332031,-0.03366875648498535,0.052045851945877075
1715439389311757000,7.311757080078125,0.1319131851196289,0.019733428955078125,0.03809744119644165
1715439389321763000,7.32176318359375,0.10153770446777344,0.028730392456054688,0.01042795181274414
1715439389331769000,7.33176904296875,-0.008311271667480469,-0.014556884765625,0.020714491605758667
1715439389341774800,7.34177490234375,-0.08816051483154297,-0.06614017486572266,0.08270338177680969
1715439389351780900,7.35178076171875,-0.12435626983642578,-0.11643695831298828,0.0926797091960907
1715439389361787000,7.361786865234375,-0.13176822662353516,-0.1653580665588379,0.08461391925811768
1715439389371793000,7.37179296875,-0.12967395782470703,-0.18005728721618652,0.092111736536026
1715439389381799000,7.381798828125,-0.09941864013671875,-0.17041540145874023,0.0631391704082489
1715439389391805000,7.391804931640625,-0.046234130859375,-0.13212823867797852,-0.007616519927978516
1715439389401811000,7.40181103515625,0.03412914276123047,-0.06570053100585938,-0.04586520791053772
1715439389411817000,7.41181689453125,0.10825252532958984,-0.0330348014831543,-0.10503777861595154
1715439389421823000,7.421822998046875,0.16237258911132812,-0.01566624641418457,-0.15052026510238647
1715439389431829000,7.4318291015625,0.17817306518554688,-0.004534482955932617,-0.1766420304775238
1715439389441835000,7.4418349609375,0.16565322875976562,-0.013459920883178711,-0.21698790788650513
1715439389451841000,7.451841064453125,0.10633563995361328,-0.04172992706298828,-0.22494769096374512
1715439389461847000,7.461846923828125,0.010271072387695312,-0.05534625053405762,-0.17266583442687988
1715439389471853000,7.47185302734375,-0.07492733001708984,-0.09170246124267578,-0.12659811973571777
1715439389481859000,7.481859130859375,-0.11653709411621094,-0.1170501708984375,-0.09543001651763916
1715439389491865300,7.491865234375,-0.110595703125,-0.11733675003051758,-0.03178456425666809
1715439389501871400,7.501871337890625,-0.0861215591430664,-0.11198759078979492,0.025851845741271973
1715439389511877400,7.51187744140625,-0.08107376098632812,-0.07302331924438477,0.04892808198928833
1715439389521883400,7.52188330078125,-0.06699180603027344,-0.0005145072937011719,0.0470697283744812
1715439389531889400,7.531889404296875,-0.03935527801513672,0.07680511474609375,0.07197636365890503
1715439389541895400,7.5418955078125,-0.002918243408203125,0.11105751991271973,0.07670018076896667
1715439389551901400,7.5519013671875,-0.00007152557373046875,0.11205756664276123,0.12422016263008118
1715439389561907500,7.561907470703125,0.01686859130859375,0.047426462173461914,0.1630641669034958
1715439389571913500,7.57191357421875,0.18911457061767578,-0.01692831516265869,0.16894501447677612
1715439389581919500,7.58191943359375,0.1988353729248047,-0.08228743076324463,0.2218347191810608
1715439389591925800,7.59192578125,0.10980796813964844,-0.17617416381835938,0.1798335313796997
1715439389601931800,7.601931884765625,0.05074119567871094,-0.19863998889923096,0.12121462821960449
1715439389611937800,7.611937744140625,-0.011882781982421875,-0.18824875354766846,0.1076279878616333
1715439389621943800,7.62194384765625,-0.07351398468017578,-0.1964513063430786,0.0714903175830841
1715439389631949800,7.63194970703125,-0.058997154235839844,-0.20800518989562988,0.04140770435333252
1715439389641955800,7.641955810546875,0.03520774841308594,-0.20933914184570312,0.05902737379074097
1715439389651961900,7.6519619140625,0.09957218170166016,-0.19179010391235352,0.07588058710098267
1715439389661968000,7.6619677734375,0.1676788330078125,-0.15155291557312012,0.06863820552825928
1715439389671974000,7.671973876953125,0.21601009368896484,-0.09893834590911865,0.027939677238464355
1715439389681980000,7.68197998046875,0.24022483825683594,-0.07213056087493896,-0.018033504486083984
1715439389691986200,7.691986083984375,0.20782947540283203,-0.01921546459197998,-0.045467108488082886
1715439389701992200,7.7019921875,0.11495018005371094,0.008172154426574707,-0.10161092877388
1715439389711998200,7.711998291015625,0.07079601287841797,0.06763792037963867,-0.17082154750823975
1715439389722004200,7.722004150390625,0.08394718170166016,0.0928046703338623,-0.19190949201583862
1715439389732010200,7.73201025390625,0.08281612396240234,0.07482779026031494,-0.21757268905639648
1715439389742016300,7.742016357421875,0.07698726654052734,0.04769110679626465,-0.21037152409553528
1715439389752022300,7.752022216796875,0.0806570053100586,0.011441946029663086,-0.19993862509727478
1715439389762028300,7.7620283203125,0.06554985046386719,-0.02014636993408203,-0.19481247663497925
1715439389772034300,7.772034423828125,0.060347557067871094,-0.0333324670791626,-0.1980096697807312
1715439389782040300,7.782040283203125,0.06023406982421875,-0.04757046699523926,-0.2048453688621521
1715439389792046600,7.792046630859375,-0.019577980041503906,-0.034796714782714844,-0.17730674147605896
1715439389802052600,7.802052490234375,-0.09778785705566406,-0.04202723503112793,-0.11038586497306824
1715439389812058600,7.81205859375,-0.17462635040283203,-0.03985333442687988,-0.0671093761920929
1715439389822064600,7.822064697265625,-0.25980281829833984,-0.03671860694885254,-0.038802772760391235
1715439389832070700,7.832070556640625,-0.3016366958618164,-0.017398476600646973,0.0023248791694641113
1715439389842076700,7.84207666015625,-0.29615116119384766,-0.02443075180053711,0.04711043834686279
1715439389852082700,7.852082763671875,-0.2487344741821289,-0.03893911838531494,0.06340518593788147
1715439389862088700,7.862088623046875,-0.17876338958740234,-0.04737663269042969,0.08508986234664917
1715439389872094700,7.8720947265625,-0.13832855224609375,-0.0361177921295166,0.07905399799346924
1715439389882100700,7.882100830078125,-0.11278057098388672,-0.010304093360900879,0.050750404596328735
1715439389892107000,7.89210693359375,-0.07364845275878906,0.020485520362854004,0.04249975085258484
1715439389902113000,7.902113037109375,-0.025905609130859375,0.037340402603149414,0.010519534349441528
1715439389912119000,7.912119140625,0.030302047729492188,0.030957818031311035,-0.017353802919387817
1715439389922125000,7.922125,0.0995950698852539,0.01555490493774414,0.03388705849647522
1715439389932131000,7.932131103515625,0.23380184173583984,-0.023844480514526367,0.07493768632411957
1715439389942137000,7.94213720703125,0.3569154739379883,-0.06039023399353027,0.10269798338413239
1715439389952143000,7.95214306640625,0.30909061431884766,-0.10875153541564941,0.11625760793685913
1715439389962149000,7.962149169921875,0.17769432067871094,-0.15819263458251953,0.09206806123256683
1715439389972155100,7.972155029296875,0.020200729370117188,-0.17382407188415527,0.048497408628463745
1715439389982161200,7.9821611328125,-0.06908416748046875,-0.1501826047897339,-0.015144824981689453
1715439389992167400,7.99216748046875,-0.07253456115722656,-0.12050449848175049,-0.09838420152664185
1715439390002173400,8.00217333984375,-0.024336814880371094,-0.08091080188751221,-0.12385624647140503
