time,seconds_elapsed,z,y,x
1715439307453100500,0.1171005859375,0.995211124420166,-0.27202415466308594,0.5110775232315063
1715439307463066400,0.12706640625,0.8282570838928223,-0.21695184707641602,0.34905123710632324
1715439307473067000,0.13706689453125,0.6602673530578613,-0.14480829238891602,0.2584044933319092
1715439307483101400,0.147101318359375,0.5389142036437988,-0.1027979850769043,0.1568712741136551
1715439307493166800,0.157166748046875,0.515235424041748,-0.09636163711547852,0.18546120822429657
1715439307503260000,0.167260009765625,0.5640382766723633,-0.10103845596313477,0.2508868873119354
1715439307513376000,0.1773759765625,0.6005830764770508,-0.1121821403503418,0.2923985719680786
1715439307523509800,0.187509765625,0.6123857498168945,-0.11633682250976562,0.2832239270210266
1715439307533655000,0.197655029296875,0.5239014625549316,-0.08669328689575195,0.23416832089424133
1715439307543806200,0.20780615234375,0.3209991455078125,-0.05566978454589844,0.15489231050014496
1715439307553950700,0.21795068359375,0.09337425231933594,-0.039977073669433594,0.08165451139211655
1715439307563956500,0.22795654296875,-0.11511898040771484,-0.03240251541137695,0.03581886738538742
1715439307573962500,0.23796240234375,-0.2295699119567871,-0.03177070617675781,0.06098659336566925
1715439307583968300,0.24796826171875,-0.25041866302490234,-0.04658651351928711,0.11921723932027817
1715439307593974000,0.25797412109375,-0.19045257568359375,-0.07677793502807617,0.16528353095054626
1715439307603979800,0.267979736328125,-0.07058477401733398,-0.07654571533203125,0.16890808939933777
1715439307613985500,0.277985595703125,0.09436368942260742,-0.07115459442138672,0.16897916793823242
1715439307623991300,0.2879912109375,0.2167649269104004,-0.08502721786499023,0.16524337232112885
1715439307633997000,0.2979970703125,0.26244544982910156,-0.06768274307250977,0.09742613136768341
1715439307644002800,0.3080029296875,0.18332290649414062,-0.06158590316772461,0.1146363914012909
1715439307654008600,0.318008544921875,0.033673763275146484,-0.051690101623535156,0.11192874610424042
1715439307664014300,0.328014404296875,-0.14881181716918945,-0.0643301010131836,0.10007734596729279
1715439307674020000,0.33802001953125,-0.19713068008422852,-0.05192279815673828,0.13556595146656036
1715439307684025900,0.34802587890625,-0.19913530349731445,-0.04761981964111328,0.11025848984718323
1715439307694032000,0.358031982421875,-0.0955972671508789,-0.03290271759033203,0.08622197061777115
1715439307704037600,0.36803759765625,-0.004875659942626953,-0.022835731506347656,0.04431450739502907
1715439307714043400,0.37804345703125,0.05993795394897461,-0.008347034454345703,0.007995245978236198
1715439307724049200,0.388049072265625,0.10479402542114258,-0.00403594970703125,0.019173311069607735
1715439307734055000,0.398054931640625,0.11226701736450195,-0.014968395233154297,0.0028413645923137665
1715439307744060700,0.408060791015625,0.04570960998535156,0.0015859603881835938,-0.03998545557260513
1715439307754066400,0.41806640625,-0.07516098022460938,0.02712869644165039,-0.09901295602321625
1715439307764072200,0.428072265625,-0.17038965225219727,0.034149169921875,-0.11380434036254883
1715439307774078000,0.438077880859375,-0.21783208847045898,0.02831268310546875,-0.11920855939388275
1715439307784083700,0.448083740234375,-0.26596498489379883,0.03389549255371094,-0.0785161554813385
1715439307794089500,0.45808935546875,-0.2588982582092285,0.022798538208007812,-0.039909977465867996
1715439307804095200,0.46809521484375,-0.15060091018676758,-0.014510154724121094,-0.012149885296821594
1715439307814101200,0.478101318359375,-0.03610515594482422,0.0012674331665039062,0.03910135105252266
1715439307824107000,0.48810693359375,0.06195497512817383,0.03528738021850586,0.0818709209561348
1715439307834112800,0.49811279296875,0.18227148056030273,0.016056537628173828,0.03064809739589691
1715439307844118500,0.508118408203125,0.17466449737548828,0.010078907012939453,0.04562799632549286
1715439307854124300,0.518124267578125,0.09271574020385742,-0.005687236785888672,0.06964248418807983
1715439307864130000,0.528130126953125,0.08317327499389648,-0.007445335388183594,0.07019281387329102
1715439307874135800,0.5381357421875,0.04588794708251953,-0.009403228759765625,0.08051539212465286
1715439307884141600,0.5481416015625,0.0328216552734375,-0.030115127563476562,0.10488799959421158
1715439307894147300,0.558147216796875,0.062428951263427734,-0.036511898040771484,0.10636343061923981
1715439307904153000,0.568153076171875,0.039807796478271484,-0.009911537170410156,0.03829964995384216
1715439307914158800,0.578158935546875,0.0078582763671875,0.016586780548095703,-0.04198804870247841
1715439307924164900,0.588164794921875,0.06561756134033203,0.0146331787109375,-0.06818026304244995
1715439307934170600,0.598170654296875,0.0327916145324707,0.0035429000854492188,-0.060894522815942764
1715439307944176400,0.60817626953125,-0.028514385223388672,-0.006431102752685547,-0.04461529850959778
1715439307954182100,0.61818212890625,0.04683256149291992,-0.015238761901855469,0.00852876901626587
1715439307964188200,0.628188232421875,0.15376520156860352,-0.004918098449707031,0.055826567113399506
1715439307974194000,0.63819384765625,0.1792888641357422,0.0000591278076171875,0.06889115273952484
1715439307984199700,0.64819970703125,0.17668819427490234,-0.005077838897705078,0.04368535429239273
1715439307994205700,0.658205810546875,0.1795182228088379,-0.015604019165039062,0.038202494382858276
1715439308004211500,0.66821142578125,0.15479612350463867,-0.03621864318847656,0.1042679026722908
1715439308014217200,0.67821728515625,0.10762310028076172,-0.047844886779785156,0.12294979393482208
1715439308024223200,0.68822314453125,0.06641674041748047,-0.04098653793334961,0.09077359735965729
1715439308034229000,0.69822900390625,0.02124929428100586,-0.02019500732421875,0.03664083778858185
1715439308044234800,0.70823486328125,-0.014157772064208984,-0.003996372222900391,-0.0024639666080474854
1715439308054240500,0.718240478515625,0.01162862777709961,-0.010915756225585938,0.009981237351894379
1715439308064246500,0.72824658203125,0.02709817886352539,-0.04543256759643555,0.05889912694692612
1715439308074252300,0.738252197265625,0.02764129638671875,-0.04580068588256836,0.08276885747909546
1715439308084258000,0.748258056640625,0.060935020446777344,-0.06006050109863281,0.08707587420940399
1715439308094264000,0.75826416015625,0.04672050476074219,-0.03657388687133789,0.05936034768819809
1715439308104269800,0.768269775390625,0.01396942138671875,-0.013558387756347656,-0.018646329641342163
1715439308114275600,0.778275634765625,-0.023427963256835938,0.023738861083984375,-0.09039824455976486
1715439308124281300,0.78828125,-0.004453182220458984,0.037718772888183594,-0.10958769917488098
1715439308134287400,0.798287353515625,0.06525516510009766,0.01935291290283203,-0.1252499222755432
1715439308144293000,0.808293212890625,0.14302539825439453,0.01565265655517578,-0.11891676485538483
1715439308154299000,0.818298828125,0.2576565742492676,0.011479854583740234,-0.09505107998847961
1715439308164305000,0.828304931640625,0.3104066848754883,0.005997180938720703,-0.05821051448583603
1715439308174310700,0.838310546875,0.24573230743408203,0.01813507080078125,-0.04574284702539444
1715439308184316400,0.84831640625,0.1641230583190918,0.024441242218017578,-0.023811638355255127
1715439308194322200,0.858322265625,0.07001876831054688,0.011502265930175781,0.012510858476161957
1715439308204328200,0.868328125,-0.008739948272705078,0.008581161499023438,0.025461778044700623
1715439308214334000,0.878333984375,-0.06326675415039062,-0.012433052062988281,0.029248937964439392
1715439308224339700,0.888339599609375,-0.06571578979492188,-0.03240680694580078,0.03373301774263382
1715439308234345700,0.898345703125,-0.03565216064453125,-0.032675743103027344,0.03883302956819534
1715439308244351500,0.9083515625,-0.011149406433105469,-0.023140430450439453,0.021209880709648132
1715439308254357200,0.918357177734375,0.01280355453491211,-0.023027420043945312,0.013834565877914429
1715439308264363000,0.928363037109375,0.007968902587890625,-0.032179832458496094,-0.0029117390513420105
1715439308274369000,0.938369140625,0.007584571838378906,-0.026670455932617188,0.012967493385076523
1715439308284374800,0.948374755859375,0.1157846450805664,-0.040396690368652344,0.06120380014181137
1715439308294380500,0.958380615234375,0.16643953323364258,-0.03590822219848633,0.07569745182991028
1715439308304386600,0.968386474609375,0.12740802764892578,-0.03218793869018555,0.028851881623268127
1715439308314392300,0.978392333984375,0.12239885330200195,-0.01015615463256836,0.0018520280718803406
1715439308324398000,0.988398193359375,0.16054058074951172,-0.022217273712158203,-0.001299884170293808
1715439308334403800,0.99840380859375,0.10477066040039062,-0.0068225860595703125,0.03328593075275421
1715439308344409900,1.008409912109375,0.003119945526123047,-0.006115913391113281,0.029865391552448273
1715439308354415600,1.01841552734375,-0.04538726806640625,0.013800621032714844,0.02667132019996643
1715439308364421400,1.02842138671875,-0.04647636413574219,0.033926963806152344,-0.0009015202522277832
1715439308374427400,1.038427490234375,-0.10971593856811523,0.017124176025390625,0.05987013503909111
1715439308384433200,1.04843310546875,-0.12611818313598633,0.0020580291748046875,0.09464642405509949
1715439308394439000,1.05843896484375,-0.12443923950195312,-0.03044414520263672,0.11856196075677872
1715439308404444700,1.068444580078125,-0.07646036148071289,-0.04273080825805664,0.12359777092933655
1715439308414450700,1.07845068359375,-0.02007436752319336,-0.06871414184570312,0.12965252995491028
1715439308424456400,1.08845654296875,0.02608633041381836,-0.06617021560668945,0.11331870406866074
1715439308434462200,1.098462158203125,0.029232501983642578,-0.0402827262878418,0.04178699851036072
1715439308444468200,1.10846826171875,0.027543067932128906,-0.01004171371459961,-0.04199749603867531
1715439308454474000,1.118473876953125,0.0728302001953125,0.010435104370117188,-0.11061292141675949
1715439308464479700,1.128479736328125,0.12671804428100586,0.030652999877929688,-0.10392799228429794
1715439308474485500,1.138485595703125,0.18469762802124023,0.03139543533325195,-0.04638885334134102
1715439308484491500,1.148491455078125,0.185760498046875,0.012676239013671875,0.005396883934736252
1715439308494497300,1.158497314453125,0.14006328582763672,-0.024949073791503906,0.023580625653266907
1715439308504503000,1.1685029296875,0.06700420379638672,-0.029140472412109375,0.03319504112005234
1715439308514509000,1.178509033203125,0.009142875671386719,-0.028399944305419922,-0.003584388643503189
1715439308524514800,1.188514892578125,-0.024559497833251953,-0.008450984954833984,-0.0630398765206337
1715439308534520600,1.1985205078125,-0.0014748573303222656,-0.007357120513916016,-0.06033006310462952
1715439308544526300,1.2085263671875,0.0729527473449707,-0.03916358947753906,-0.029782138764858246
1715439308554532400,1.218532470703125,0.1372060775756836,-0.05685091018676758,-0.0046745650470256805
1715439308564538000,1.2285380859375,0.15877199172973633,-0.04683828353881836,0.019691016525030136
1715439308574544000,1.2385439453125,0.15262460708618164,-0.02857494354248047,0.01972304657101631
1715439308584550000,1.2485498046875,0.10018205642700195,-0.011385440826416016,-0.003565683960914612
1715439308594555600,1.2585556640625,0.05843687057495117,0.0003476142883300781,-0.006555050611495972
1715439308604561400,1.2685615234375,0.03641939163208008,0.002238750457763672,-0.012734293937683105
1715439308614567200,1.278567138671875,-0.022901058197021484,-0.0006084442138671875,-0.02297338843345642
1715439308624573200,1.2885732421875,-0.08697128295898438,-0.0022521018981933594,-0.029139693826436996
1715439308634579000,1.298578857421875,-0.10439872741699219,-0.0021758079528808594,-0.036624081432819366
1715439308644584700,1.308584716796875,-0.023548603057861328,-0.0011010169982910156,-0.016622625291347504
1715439308654590700,1.3185908203125,-0.01024007797241211,-0.013862133026123047,-0.002039201557636261
1715439308664596500,1.328596435546875,-0.02567768096923828,-0.007268428802490234,-0.011848364025354385
1715439308674602200,1.338602294921875,0.04833173751831055,-0.014601707458496094,-0.0030358433723449707
1715439308684608000,1.34860791015625,0.14499616622924805,-0.01278066635131836,0.029156818985939026
1715439308694614000,1.358614013671875,0.2080531120300293,-0.01677560806274414,0.033144183456897736
1715439308704619800,1.368619873046875,0.2057180404663086,-0.022474288940429688,0.01465168222784996
1715439308714625500,1.37862548828125,0.0915827751159668,-0.0011353492736816406,0.011431701481342316
1715439308724631600,1.388631591796875,-0.025287628173828125,-0.008479118347167969,0.012690261006355286
1715439308734637300,1.39863720703125,-0.06569385528564453,-0.014775753021240234,0.00778154656291008
1715439308744643000,1.40864306640625,-0.05950641632080078,-0.019657135009765625,0.015436500310897827
1715439308754648800,1.41864892578125,-0.07799386978149414,-0.02801036834716797,0.016980241984128952
1715439308764654800,1.42865478515625,-0.1300950050354004,-0.02572917938232422,0.03681859001517296
1715439308774660600,1.43866064453125,-0.1352066993713379,-0.03653383255004883,0.014119043946266174
1715439308784666400,1.448666259765625,-0.09370136260986328,-0.041834354400634766,0.020895525813102722
1715439308794672400,1.45867236328125,-0.04381752014160156,-0.06078672409057617,0.07062890380620956
1715439308804678100,1.46867822265625,0.1610279083251953,-0.08459663391113281,0.1351248174905777
1715439308814684000,1.478683837890625,0.3357853889465332,-0.07682323455810547,0.14813998341560364
1715439308824689700,1.488689697265625,0.3590059280395508,-0.0432429313659668,0.1393241137266159
1715439308834695700,1.49869580078125,0.2564883232116699,-0.059317588806152344,0.09438569843769073
1715439308844701400,1.508701416015625,0.08130645751953125,-0.03853750228881836,0.012726452201604843
1715439308854707200,1.518707275390625,-0.04399728775024414,-0.0038208961486816406,-0.08269145339727402
1715439308864713200,1.528713134765625,-0.1257166862487793,0.01248931884765625,-0.1362581104040146
1715439308874719000,1.538718994140625,-0.1271209716796875,0.010930061340332031,-0.1531391143798828
1715439308884724700,1.548724853515625,-0.10148382186889648,0.0013675689697265625,-0.12863697111606598
1715439308894730500,1.55873046875,-0.06324481964111328,-0.011510848999023438,-0.10094816982746124
1715439308904736500,1.568736572265625,0.08244514465332031,-0.02394247055053711,-0.04984564706683159
1715439308914742300,1.5787421875,0.18414974212646484,-0.013546943664550781,-0.03154667466878891
1715439308924748000,1.588748046875,0.15805721282958984,-0.009185791015625,-0.013435062021017075
1715439308934754000,1.598754150390625,0.12401008605957031,-0.010759830474853516,0.05187855288386345
1715439308944759800,1.608759765625,0.08207082748413086,-0.022804737091064453,0.10797947645187378
1715439308954765600,1.618765625,-0.01526021957397461,-0.020984649658203125,0.06463325023651123
1715439308964771300,1.628771240234375,-0.14918231964111328,-0.013868331909179688,0.03514980897307396
1715439308974777300,1.63877734375,-0.15469837188720703,-0.034043312072753906,0.038048237562179565
1715439308984783000,1.648783203125,-0.09488964080810547,-0.05311393737792969,0.04572900012135506
1715439308994788900,1.658788818359375,-0.07443857192993164,-0.05697298049926758,0.02098986506462097
1715439309004795000,1.668794921875,-0.0032949447631835938,-0.05521392822265625,0.025444883853197098
1715439309014800600,1.678800537109375,0.09484195709228516,-0.05341005325317383,0.040125489234924316
1715439309024806400,1.688806396484375,0.18219709396362305,-0.03781938552856445,0.06958618760108948
1715439309034812200,1.698812255859375,0.22169828414916992,-0.04680299758911133,0.08022020757198334
1715439309044818200,1.708818115234375,0.21414756774902344,-0.028156280517578125,0.07136513292789459
1715439309054824000,1.718823974609375,0.18373537063598633,-0.024562358856201172,0.06188802421092987
1715439309064829700,1.72882958984375,0.13077306747436523,-0.0027337074279785156,0.05218399316072464
1715439309074835700,1.738835693359375,0.04130363464355469,0.013714790344238281,0.018636886030435562
1715439309084841500,1.748841552734375,-0.027973651885986328,0.0065021514892578125,-0.005679242312908173
1715439309094847200,1.75884716796875,-0.035089969635009766,0.009058952331542969,0.007856406271457672
1715439309104853000,1.76885302734375,-0.05634593963623047,0.030562400817871094,-0.0077001191675662994
1715439309114859000,1.77885888671875,-0.12494707107543945,0.019440650939941406,-0.03354388475418091
1715439309124864800,1.78886474609375,-0.13651609420776367,0.004490375518798828,0.020114410668611526
1715439309134870500,1.79887060546875,-0.0395965576171875,-0.029047489166259766,0.06419984996318817
1715439309144876500,1.80887646484375,0.05127096176147461,-0.01524972915649414,0.042460523545742035
1715439309154882300,1.81888232421875,0.05150318145751953,0.012059688568115234,-0.006783682852983475
1715439309164888000,1.82888818359375,-0.02381420135498047,0.0014791488647460938,-0.027069978415966034
1715439309174893800,1.838893798828125,-0.0937204360961914,-0.013016223907470703,-0.0283828005194664
1715439309184899800,1.84889990234375,-0.08317899703979492,-0.012298107147216797,-0.03399001434445381
1715439309194905600,1.858905517578125,-0.02158212661743164,-0.029811382293701172,-0.03363489732146263
1715439309204911400,1.868911376953125,0.09083795547485352,-0.023569107055664062,0.00148715078830719
1715439309214917400,1.87891748046875,0.12154722213745117,-0.027078628540039062,-0.06771858781576157
1715439309224923100,1.888923095703125,0.062428951263427734,-0.002429962158203125,-0.10402463376522064
1715439309234929000,1.898928955078125,-0.03834724426269531,-0.01555013656616211,-0.08465182781219482
1715439309244934700,1.9089345703125,-0.06264925003051758,-0.018417835235595703,-0.03848802670836449
1715439309254940700,1.918940673828125,0.0502781867980957,-0.035672664642333984,0.016615301370620728
1715439309264946400,1.928946533203125,0.10106897354125977,-0.020759105682373047,0.048455752432346344
1715439309274952200,1.9389521484375,0.05268144607543945,-0.01612710952758789,0.023569948971271515
1715439309284958200,1.948958251953125,-0.018439769744873047,-0.02098703384399414,-0.0014156848192214966
1715439309294964000,1.9589638671875,-0.11246585845947266,-0.0016045570373535156,-0.02193664386868477
1715439309304969700,1.9689697265625,-0.16835451126098633,-0.00014543533325195312,-0.00981544703245163
1715439309314975500,1.9789755859375,-0.13521766662597656,-0.025420665740966797,0.010545454919338226
1715439309324981500,1.9889814453125,0.052075862884521484,-0.03538227081298828,0.048676975071430206
1715439309334987300,1.9989873046875,0.2704281806945801,-0.027731895446777344,0.08387713134288788
1715439309344993000,2.008992919921875,0.350283145904541,-0.04097461700439453,0.10745608806610107
1715439309354999000,2.0189990234375,0.3078165054321289,-0.041489601135253906,0.018784597516059875
1715439309365004800,2.0290048828125,0.20581579208374023,-0.028948307037353516,-0.03148538991808891
1715439309375010600,2.039010498046875,0.06806325912475586,0.0019898414611816406,-0.03503218665719032
1715439309385016300,2.049016357421875,-0.04909563064575195,-0.009344100952148438,0.0071336328983306885
1715439309395022300,2.059022216796875,-0.15604066848754883,-0.05213785171508789,0.05670303851366043
1715439309405028000,2.069028076171875,-0.2299480438232422,-0.054625511169433594,0.05261726677417755
1715439309415033900,2.079033935546875,-0.16778230667114258,-0.03160238265991211,0.0006667152047157288
1715439309425039600,2.08903955078125,0.10045433044433594,-0.018304824829101562,-0.007440716028213501
1715439309435045400,2.09904541015625,0.3140544891357422,-0.01649951934814453,0.029088042676448822
1715439309445051100,2.109051025390625,0.35178089141845703,-0.016887664794921875,0.019739076495170593
1715439309455057000,2.119056884765625,0.30597686767578125,-0.019353389739990234,0.03425191342830658
1715439309465062700,2.129062744140625,0.27725887298583984,-0.005421638488769531,0.06823369860649109
1715439309475068400,2.139068359375,0.1753230094909668,-0.0029964447021484375,0.08910388499498367
1715439309485074200,2.14907421875,0.01893329620361328,-0.029245853424072266,0.05320081114768982
1715439309495080200,2.159080078125,-0.09786367416381836,-0.026026248931884766,0.05550367385149002
1715439309505086000,2.1690859375,-0.15259790420532227,-0.02633047103881836,0.02456788718700409
1715439309515091700,2.179091796875,-0.17468547821044922,-0.0346531867980957,-0.05437798053026199
1715439309525097500,2.189097412109375,-0.17886734008789062,-0.017825603485107422,-0.0817975327372551
1715439309535103200,2.199103271484375,-0.1465444564819336,-0.009307861328125,-0.06751180440187454
1715439309545109000,2.20910888671875,-0.06378889083862305,-0.03296804428100586,-0.04479913413524628
1715439309555114800,2.21911474609375,0.03635597229003906,-0.0373225212097168,-0.008569292724132538
1715439309565120500,2.22912060546875,0.1876506805419922,-0.0568852424621582,0.06608512997627258
1715439309575126300,2.239126220703125,0.20601463317871094,-0.04007387161254883,0.07118657976388931
1715439309585132000,2.249132080078125,0.10266780853271484,-0.01999044418334961,0.012403838336467743
1715439309595137800,2.2591376953125,-0.017592430114746094,-0.014595985412597656,-0.05374085530638695
1715439309605143600,2.2691435546875,-0.10337162017822266,0.0006680488586425781,-0.09971189498901367
1715439309615149600,2.279149658203125,-0.0663304328918457,0.02154254913330078,-0.1029023677110672
1715439309625155300,2.2891552734375,0.011721611022949219,0.028790950775146484,-0.11682343482971191
1715439309635161000,2.2991611328125,0.07388019561767578,0.03645944595336914,-0.10945582389831543
1715439309645166800,2.309166748046875,0.10669183731079102,0.02053689956665039,-0.056698545813560486
1715439309655172600,2.319172607421875,0.09222602844238281,0.009206295013427734,-0.029568564146757126
1715439309665178400,2.329178466796875,0.05494976043701172,0.016366004943847656,-0.027386967092752457
1715439309675184000,2.33918408203125,-0.01902484893798828,0.008903026580810547,0.007232584059238434
1715439309685190100,2.349190185546875,-0.07293510437011719,-0.00784921646118164,0.027477972209453583
1715439309695196000,2.35919580078125,-0.0693807601928711,-0.019689559936523438,0.0624244287610054
1715439309705201700,2.36920166015625,-0.032868385314941406,-0.03141212463378906,0.0891667827963829
1715439309715207700,2.379207763671875,0.0029582977294921875,-0.04286527633666992,0.09310977905988693
1715439309725213400,2.38921337890625,0.04302978515625,-0.05428504943847656,0.0840364322066307
1715439309735219200,2.39921923828125,0.059369564056396484,-0.037801265716552734,0.05754530429840088
1715439309745225000,2.409224853515625,0.042749881744384766,-0.03131532669067383,0.032399050891399384
1715439309755231000,2.41923095703125,0.04060220718383789,-0.0391387939453125,0.022179022431373596
1715439309765236700,2.42923681640625,0.0004754066467285156,-0.03232288360595703,0.007642295211553574
1715439309775242500,2.439242431640625,0.021744728088378906,-0.029792308807373047,0.031091861426830292
1715439309785248500,2.44924853515625,0.056650638580322266,-0.027152061462402344,0.03521915152668953
1715439309795254300,2.459254150390625,0.043897151947021484,-0.019846439361572266,0.019603118300437927
1715439309805260000,2.469260009765625,0.017096996307373047,-0.007799625396728516,0.017762254923582077
1715439309815265800,2.479265869140625,0.009650707244873047,-0.0007376670837402344,0.015653096139431
1715439309825271800,2.489271728515625,0.011678695678710938,0.0015764236450195312,-0.015117496252059937
1715439309835277600,2.499277587890625,0.06588983535766602,-0.006020069122314453,-0.003436420112848282
1715439309845283300,2.509283447265625,0.10099458694458008,-0.014175891876220703,0.007814820855855942
1715439309855289300,2.519289306640625,0.08442258834838867,-0.004122257232666016,-0.00018444284796714783
1715439309865295000,2.529295166015625,0.026454448699951172,-0.018539905548095703,-0.00843743234872818
1715439309875300900,2.53930078125,-0.08711433410644531,-0.023221492767333984,0.02043086662888527
1715439309885306600,2.549306640625,-0.18093204498291016,-0.017337799072265625,0.0342363677918911
1715439309895312600,2.559312744140625,-0.12805986404418945,-0.020055294036865234,0.1000397577881813
1715439309905318400,2.569318359375,-0.09061574935913086,-0.017563819885253906,0.06659132242202759
1715439309915324200,2.57932421875,-0.05414772033691406,-0.024150371551513672,0.020171035081148148
1715439309925330200,2.589330078125,-0.004445552825927734,-0.006778717041015625,0.012882350012660027
1715439309935336000,2.5993359375,0.24253368377685547,-0.008909225463867188,0.0499897263944149
1715439309945341700,2.609341796875,0.5305080413818359,-0.04692554473876953,0.10402849316596985
1715439309955347500,2.619347412109375,0.5204229354858398,-0.05970144271850586,0.06484611332416534
1715439309965353500,2.629353515625,0.33877038955688477,-0.051373958587646484,-0.05350921303033829
1715439309975359200,2.639359130859375,0.2180166244506836,-0.006943702697753906,-0.024819592013955116
1715439309985365000,2.649364990234375,0.109710693359375,-0.016088485717773438,-0.03587424010038376
1715439309995371000,2.65937109375,-0.06268453598022461,-0.010930538177490234,-0.09601012617349625
1715439310005376800,2.669376708984375,-0.24766016006469727,-0.03264904022216797,-0.11522021889686584
1715439310015382500,2.679382568359375,-0.3375697135925293,-0.013976097106933594,-0.07475344091653824
1715439310025388500,2.689388427734375,-0.3577604293823242,-0.0024576187133789062,-0.08770474791526794
1715439310035394300,2.699394287109375,-0.403928279876709,0.0023894309997558594,-0.07738825678825378
1715439310045400000,2.709400146484375,-0.3012819290161133,0.005225658416748047,-0.02902945876121521
1715439310055405800,2.71940576171875,-0.10752391815185547,0.00002002716064453125,0.00037793442606925964
1715439310065411800,2.729411865234375,0.04997730255126953,-0.0003170967102050781,0.01548672653734684
1715439310075417600,2.73941748046875,0.11610269546508789,-0.010815143585205078,0.053890302777290344
1715439310085423400,2.74942333984375,0.08752250671386719,-0.021738052368164062,0.03897879645228386
1715439310095429400,2.759429443359375,0.03615713119506836,-0.02336263656616211,0.013714829459786415
1715439310105435100,2.76943505859375,-0.028554439544677734,-0.024884700775146484,-0.01703452318906784
1715439310115441000,2.77944091796875,-0.09754180908203125,0.02608633041381836,-0.025057682767510414
1715439310125446700,2.78944677734375,-0.12357378005981445,-0.03149127960205078,-0.062021009624004364
1715439310135452700,2.79945263671875,-0.17849206924438477,-0.035192012786865234,0.00029238685965538025
1715439310145458400,2.80945849609375,-0.13953208923339844,-0.03755807876586914,0.034200288355350494
1715439310155464200,2.819464111328125,-0.007615089416503906,-0.029868125915527344,0.007959270849823952
1715439310165470200,2.82947021484375,0.05169057846069336,-0.036655426025390625,0.002033282071352005
1715439310175476000,2.83947607421875,0.011200904846191406,-0.04340362548828125,0.020500805228948593
1715439310185481700,2.849481689453125,-0.08083391189575195,-0.040172576904296875,0.020720988512039185
1715439310195487500,2.859487548828125,-0.26692771911621094,-0.030789852142333984,-0.006707202643156052
1715439310205493500,2.869493408203125,-0.4764442443847656,-0.027836322784423828,-0.03858797624707222
1715439310215499300,2.879499267578125,-0.6112399101257324,-0.030006885528564453,-0.005040123127400875
1715439310225505000,2.889505126953125,-0.7863941192626953,-0.022183895111083984,-0.12441679835319519
1715439310235511000,2.899510986328125,-1.0643134117126465,-0.011915206909179688,-0.1506999433040619
1715439310245516800,2.909516845703125,-1.4363150596618652,-0.06242847442626953,-0.19841508567333221
1715439310255522600,2.9195224609375,-1.9605231285095215,-0.10782909393310547,-0.2796728014945984
1715439310265528600,2.929528564453125,-2.52462100982666,-0.1395425796508789,-0.3133324682712555
1715439310275534300,2.939534423828125,-3.053252696990967,-0.24702167510986328,-0.17953374981880188
1715439310285540400,2.949540283203125,-3.66731333732605,-0.4001426696777344,-0.0810939222574234
1715439310295546000,2.959546142578125,-4.215723037719727,-0.618011474609375,0.16058498620986938
1715439310305552100,2.96955224609375,-4.378513336181641,-0.8355402946472168,0.3700753152370453
1715439310315558000,2.979557861328125,-4.043827056884766,-1.038377285003662,0.3530816435813904
1715439310325564000,2.98956396484375,-3.503286361694336,-1.229637622833252,0.37450072169303894
1715439310335569700,2.999569580078125,-2.884744167327881,-1.4186089038848877,0.22138383984565735
1715439310345575700,3.00957568359375,-2.851701259613037,-1.41292142868042,-0.0021179914474487305
1715439310355581400,3.01958154296875,-2.7603673934936523,-1.5711584091186523,-0.15083862841129303
1715439310365587500,3.02958740234375,-3.091609477996826,-1.499403715133667,-0.23929008841514587
1715439310375593200,3.03959326171875,-2.648019313812256,-1.7046959400177002,-0.5774863362312317
1715439310385599200,3.04959912109375,-2.3497118949890137,-1.4103193283081055,-0.7117949724197388
1715439310395605000,3.05960498046875,-1.0516357421875,-1.7011568546295166,-0.8232495188713074
1715439310405611000,3.069611083984375,-0.31709766387939453,-1.5463473796844482,-0.45074260234832764
1715439310415616800,3.07961669921875,-0.25372791290283203,-1.177647590637207,-0.35009050369262695
1715439310425622800,3.089622802734375,0.8038816452026367,-1.6375820636749268,-0.023308351635932922
1715439310435628500,3.099628662109375,1.3589744567871094,-1.472145438194275,0.5792249441146851
1715439310445634600,3.109634521484375,2.242060661315918,-1.2532752752304077,0.9919052720069885
1715439310455640300,3.119640380859375,2.547562599182129,-1.287817120552063,1.1167315244674683
1715439310465646300,3.129646240234375,2.493586540222168,-1.3738685846328735,0.6419462561607361
1715439310475652000,3.139652099609375,2.2403879165649414,-1.204701542854309,0.36137130856513977
1715439310485658000,3.149658203125,2.459505081176758,-1.0686566829681396,0.23057135939598083
1715439310495663900,3.159663818359375,2.6849403381347656,-0.7888855934143066,-0.059074461460113525
1715439310505670000,3.169669921875,2.700387954711914,-0.5570163130760193,-0.2920680046081543
1715439310515675600,3.179675537109375,2.533820152282715,-0.3290761113166809,-0.49189746379852295
1715439310525681400,3.189681396484375,2.6332597732543945,-0.2957373857498169,-0.5907799005508423
1715439310535687200,3.199687255859375,2.743332862854004,-0.32029902935028076,-0.32250964641571045
1715439310545693200,3.209693115234375,2.7431764602661133,-0.39965152740478516,-0.08132100105285645
1715439310555699000,3.219698974609375,2.746453285217285,-0.4439750909805298,0.20101767778396606
1715439310565704700,3.22970458984375,2.613697052001953,-0.35456836223602295,0.3416312336921692
1715439310575710700,3.239710693359375,2.240245819091797,-0.2769237756729126,0.44651898741722107
1715439310585716500,3.249716552734375,1.8562088012695312,-0.2694430351257324,0.5508258938789368
1715439310595722200,3.25972216796875,1.4906415939331055,-0.2321767807006836,0.4355137050151825
1715439310605728000,3.26972802734375,1.3587522506713867,-0.2617363929748535,0.4653449058532715
1715439310615734000,3.279734130859375,1.2551345825195312,-0.22625970840454102,0.4636593461036682
1715439310625739800,3.28973974609375,1.2184762954711914,-0.18983197212219238,0.3261968195438385
1715439310635745500,3.29974560546875,1.4251298904418945,-0.23362421989440918,0.31556951999664307
1715439310645751600,3.30975146484375,1.6351842880249023,-0.17804241180419922,0.2843731641769409
1715439310655757300,3.31975732421875,1.662135124206543,-0.1726818084716797,0.12190497666597366
1715439310665763000,3.32976318359375,1.525564193725586,-0.22216272354125977,0.11766478419303894
1715439310675768800,3.339768798828125,1.2930574417114258,-0.22911310195922852,0.07084174454212189
1715439310685774800,3.34977490234375,1.1273431777954102,-0.22616446018218994,0.0360599085688591
1715439310695780600,3.359780517578125,0.8516740798950195,-0.18409132957458496,0.018455345183610916
1715439310705786400,3.369786376953125,0.4334287643432617,-0.176849365234375,0.02643643319606781
1715439310715792400,3.37979248046875,0.06926918029785156,-0.1920260190963745,0.03962580859661102
1715439310725798100,3.389798095703125,-0.10210132598876953,-0.20332860946655273,-0.01435483992099762
1715439310735804000,3.399803955078125,-0.033553123474121094,-0.19652700424194336,0.03673553466796875
1715439310745809700,3.4098095703125,0.10687637329101562,-0.21106863021850586,0.1031658872961998
1715439310755815700,3.419815673828125,0.24713134765625,-0.2433222532272339,0.16652916371822357
1715439310765821400,3.429821533203125,0.3104829788208008,-0.23278522491455078,0.10649760067462921
1715439310775827200,3.4398271484375,0.23503398895263672,-0.2182931900024414,-0.011514484882354736
1715439310785833200,3.449833251953125,0.18837833404541016,-0.18522870540618896,-0.00906360149383545
1715439310795839000,3.4598388671875,0.1371440887451172,-0.18535327911376953,-0.05539979040622711
1715439310805844700,3.4698447265625,0.12914752960205078,-0.1849536895751953,-0.08252248167991638
1715439310815850500,3.4798505859375,0.15468692779541016,-0.21288931369781494,-0.05617104470729828
1715439310825856500,3.4898564453125,0.20880699157714844,-0.2073143720626831,-0.03989231586456299
1715439310835862300,3.4998623046875,0.29607582092285156,-0.15442323684692383,0.01204170286655426
1715439310845868000,3.509867919921875,0.35405731201171875,-0.06033587455749512,0.026910200715065002
1715439310855874000,3.5198740234375,0.2445049285888672,0.013359785079956055,-0.08067131042480469
1715439310865879800,3.5298798828125,0.1924886703491211,0.014906644821166992,0.02571127563714981
1715439310875885600,3.539885498046875,0.1834278106689453,0.01554250717163086,0.1136695146560669
1715439310885891300,3.549891357421875,0.10241317749023438,-0.047820091247558594,-0.05842961370944977
1715439310895897300,3.5598974609375,-0.0786600112915039,-0.0876471996307373,0.19151811301708221
1715439310905903000,3.569903076171875,0.04642200469970703,-0.09870767593383789,0.13384504616260529
1715439310915908900,3.579908935546875,0.00406646728515625,-0.13839387893676758,0.06896450370550156
1715439310925915000,3.589914794921875,0.09084701538085938,-0.2159748077392578,0.17885173857212067
1715439310935920600,3.599920654296875,0.20115184783935547,-0.20332646369934082,0.1804531365633011
1715439310945926400,3.609926513671875,0.31089305877685547,-0.14896798133850098,0.15779316425323486
1715439310955932200,3.61993212890625,0.3149375915527344,-0.16303706169128418,0.1994660347700119
1715439310965938200,3.629938232421875,0.18509674072265625,-0.1823430061340332,0.19923925399780273
1715439310975944000,3.63994384765625,0.12251091003417969,-0.18207716941833496,0.210952490568161
1715439310985949700,3.64994970703125,0.13647937774658203,-0.1627941131591797,0.1745644360780716
1715439310995955700,3.659955810546875,0.18843555450439453,-0.15391063690185547,0.13798075914382935
1715439311005961500,3.66996142578125,0.14939403533935547,-0.15022826194763184,0.070850670337677
1715439311015967200,3.67996728515625,0.06282615661621094,-0.14583921432495117,0.05951671302318573
1715439311025973000,3.689972900390625,0.029262542724609375,-0.15933799743652344,0.07568277418613434
1715439311035979000,3.69997900390625,-0.013454437255859375,-0.1283869743347168,0.1394287645816803
1715439311045984800,3.70998486328125,-0.041520118713378906,-0.16344523429870605,0.24641726911067963
1715439311055990500,3.719990478515625,-0.007328987121582031,-0.17409825325012207,0.3056682348251343
1715439311065996500,3.72999658203125,0.1031351089477539,-0.10381913185119629,0.2700639069080353
1715439311076002300,3.740002197265625,0.20527267456054688,-0.04897022247314453,0.1563405990600586
1715439311086008000,3.750008056640625,0.3052215576171875,-0.04452013969421387,0.07438172399997711
1715439311096013800,3.760013916015625,0.33234596252441406,-0.019196271896362305,0.04233044385910034
1715439311106019800,3.770019775390625,0.32565784454345703,0.03206133842468262,-0.05966062843799591
1715439311116025600,3.780025634765625,0.2857961654663086,0.02455282211303711,-0.13800954818725586
1715439311126031400,3.79003125,0.09584808349609375,-0.029942035675048828,-0.2519940137863159
1715439311136037400,3.800037353515625,-0.09067630767822266,-0.11973261833190918,-0.18812154233455658
1715439311146043100,3.810043212890625,-0.15599536895751953,-0.16857147216796875,-0.035795241594314575
1715439311156049000,3.820048828125,-0.09747791290283203,-0.17282462120056152,-0.030517354607582092
1715439311166054700,3.8300546875,-0.011490821838378906,-0.13855576515197754,-0.05682575702667236
1715439311176060700,3.840060791015625,0.07785224914550781,-0.11408829689025879,-0.023911505937576294
1715439311186066400,3.85006640625,0.09973812103271484,-0.10466337203979492,-0.049477025866508484
1715439311196072200,3.860072265625,0.07420730590820312,-0.1330728530883789,-0.011509329080581665
1715439311206078200,3.870078125,0.044475555419921875,-0.12764406204223633,0.04431639611721039
1715439311216084000,3.880083984375,-0.008210182189941406,-0.12179183959960938,0.03716869652271271
1715439311226089700,3.89008984375,-0.008074760437011719,-0.1200261116027832,0.06282944232225418
1715439311236095500,3.900095458984375,0.09095096588134766,-0.08049917221069336,0.06859131157398224
1715439311246101500,3.9101015625,0.13166141510009766,-0.04221653938293457,0.025269418954849243
1715439311256107300,3.920107177734375,0.044528961181640625,-0.009170770645141602,0.0032886862754821777
1715439311266113000,3.930113037109375,-0.0927267074584961,0.010509490966796875,-0.04973950982093811
1715439311276119000,3.940119140625,-0.07190895080566406,-0.019925832748413086,-0.023303404450416565
1715439311286124800,3.950124755859375,-0.008907318115234375,-0.05376148223876953,0.05310045927762985
1715439311296130600,3.960130615234375,0.03896045684814453,-0.06339693069458008,0.05356108397245407
1715439311306136300,3.97013623046875,0.09064960479736328,-0.045128583908081055,0.054681286215782166
1715439311316142300,3.980142333984375,0.1036062240600586,-0.047013044357299805,0.06100022792816162
1715439311326148000,3.990148193359375,0.12555789947509766,-0.08293867111206055,0.07381835579872131
1715439311336153900,4.00015380859375,0.1656503677368164,-0.09172439575195312,0.09845525026321411
1715439311346159900,4.010159912109375,0.17644023895263672,-0.09285831451416016,0.05875209718942642
1715439311356165600,4.02016552734375,0.09262657165527344,-0.08576560020446777,0.03433988243341446
1715439311366171400,4.03017138671875,0.038482666015625,-0.10223555564880371,0.02438122034072876
1715439311376177200,4.04017724609375,0.04193401336669922,-0.1221315860748291,0.026678025722503662
1715439311386183200,4.05018310546875,0.09263324737548828,-0.1263589859008789,0.06333792209625244
1715439311396189000,4.06018896484375,0.19902896881103516,-0.14904069900512695,0.1484096199274063
1715439311406194700,4.070194580078125,0.3504772186279297,-0.16783380508422852,0.1789778470993042
1715439311416200700,4.08020068359375,0.4612092971801758,-0.17470026016235352,0.16200405359268188
1715439311426206500,4.09020654296875,0.4423542022705078,-0.1561298370361328,0.10748113691806793
1715439311436212200,4.100212158203125,0.2539520263671875,-0.11134505271911621,0.034170400351285934
1715439311446218000,4.110218017578125,0.049938201904296875,-0.09526753425598145,-0.018904253840446472
1715439311456224000,4.12022412109375,0.00025177001953125,-0.06422924995422363,-0.04247339814901352
1715439311466229800,4.130229736328125,0.026811599731445312,-0.033414602279663086,-0.059554699808359146
1715439311476235500,4.140235595703125,0.0152740478515625,-0.01253819465637207,-0.0520511269569397
1715439311486241500,4.150241455078125,-0.005415916442871094,-0.0011296272277832031,-0.02607303112745285
1715439311496247300,4.160247314453125,-0.016373634338378906,0.00988149642944336,-0.03855476155877113
1715439311506253000,4.170253173828125,-0.13545608520507812,0.03473007678985596,-0.031137991696596146
1715439311516258800,4.1802587890625,-0.21479034423828125,0.05015158653259277,0.006234345026314259
1715439311526264800,4.190264892578125,-0.2219991683959961,0.04258406162261963,-0.01757667399942875
1715439311536270600,4.2002705078125,-0.2053518295288086,0.08314120769500732,-0.041007522493600845
1715439311546276400,4.2102763671875,-0.18410205841064453,0.04849600791931152,-0.003055746667087078
1715439311556282400,4.220282470703125,-0.2054157257080078,0.015237927436828613,0.039357781410217285
1715439311566288100,4.2302880859375,-0.1744537353515625,0.011393547058105469,-0.008093947544693947
1715439311576294000,4.2402939453125,-0.17686080932617188,0.008119344711303711,0.00124402716755867
1715439311586299600,4.250299560546875,-0.18856239318847656,-0.008821368217468262,-0.00800224021077156
1715439311596305700,4.2603056640625,-0.1952371597290039,-0.03899848461151123,0.011663880199193954
1715439311606311400,4.2703115234375,-0.14055156707763672,-0.05434584617614746,-0.015032052993774414
1715439311616317200,4.280317138671875,-0.07278156280517578,-0.05591714382171631,-0.04865904524922371
1715439311626323200,4.2903232421875,-0.08171463012695312,-0.04915487766265869,-0.0036201253533363342
1715439311636329000,4.300328857421875,-0.15169429779052734,-0.051819682121276855,0.01389133557677269
1715439311646334700,4.310334716796875,-0.21082401275634766,-0.029582858085632324,0.002495281398296356
1715439311656340500,4.320340576171875,-0.19794845581054688,-0.005796194076538086,0.008608538657426834
1715439311666346500,4.330346435546875,-0.1284341812133789,-0.008941292762756348,0.074156254529953
1715439311676352300,4.340352294921875,-0.017599105834960938,-0.020947813987731934,0.11492733657360077
1715439311686358000,4.35035791015625,0.119537353515625,-0.06622040271759033,0.12729160487651825
1715439311696364000,4.360364013671875,0.2447061538696289,-0.07909178733825684,0.18663612008094788
1715439311706369800,4.370369873046875,0.27789878845214844,-0.06091046333312988,0.17426127195358276
1715439311716375600,4.38037548828125,0.22060394287109375,-0.04064738750457764,0.11153075098991394
1715439311726381300,4.39038134765625,0.1592273712158203,-0.045882225036621094,0.0888899639248848
1715439311736387300,4.40038720703125,0.08927536010742188,-0.06135821342468262,0.0817040205001831
1715439311746393000,4.41039306640625,0.07218265533447266,-0.08650100231170654,0.1276472806930542
1715439311756398800,4.42039892578125,0.09294509887695312,-0.09760987758636475,0.10795974731445312
1715439311766404900,4.43040478515625,0.033466339111328125,-0.07016003131866455,0.016882460564374924
1715439311776410600,4.44041064453125,-0.019957542419433594,-0.03673982620239258,-0.023936286568641663
1715439311786416400,4.45041650390625,-0.05795764923095703,-0.025395870208740234,-0.010323097929358482
1715439311796422100,4.460422119140625,-0.024392127990722656,-0.01743149757385254,0.030323117971420288
1715439311806428200,4.47042822265625,0.03702831268310547,-0.02291738986968994,0.08316386491060257
1715439311816434000,4.480433837890625,0.07384777069091797,-0.0002652406692504883,0.11540047824382782
1715439311826439700,4.490439697265625,0.09112071990966797,-0.0020437240600585938,0.09561087191104889
1715439311836445700,4.50044580078125,0.0702972412109375,0.009622573852539062,0.08136588335037231
1715439311846451500,4.510451416015625,0.045055389404296875,0.01137089729309082,0.029568925499916077
1715439311856457200,4.520457275390625,0.03903388977050781,0.003470778465270996,-0.04064575210213661
1715439311866463200,4.530463134765625,0.05174446105957031,0.013526439666748047,-0.042536959052085876
1715439311876469000,4.540468994140625,0.05447673797607422,0.021692633628845215,-0.06496171653270721
1715439311886474800,4.550474853515625,0.005146026611328125,-0.004351019859313965,-0.08502727001905441
1715439311896480500,4.56048046875,-0.08098506927490234,-0.015630722045898438,-0.05791648104786873
1715439311906486500,4.570486572265625,-0.19369220733642578,-0.03963041305541992,-0.059773530811071396
1715439311916492300,4.5804921875,-0.24293994903564453,-0.07071912288665771,-0.028176087886095047
1715439311926498000,4.590498046875,-0.1686115264892578,-0.07602286338806152,0.012127935886383057
1715439311936504000,4.600504150390625,-0.08125877380371094,-0.0475696325302124,-0.02381918951869011
1715439311946509800,4.610509765625,-0.061264991760253906,-0.01948857307434082,-0.09139953553676605
1715439311956515600,4.620515625,-0.07460784912109375,-0.0014939308166503906,-0.12834860384464264
1715439311966521600,4.630521484375,-0.08767032623291016,-0.0023287534713745117,-0.15441656112670898
1715439311976527400,4.64052734375,-0.043910980224609375,-0.012059688568115234,-0.142425075173378
1715439311986533400,4.650533447265625,0.02282238006591797,-0.016109824180603027,-0.12699972093105316
1715439311996539100,4.6605390625,0.06970977783203125,-0.029003500938415527,-0.09971024096012115
1715439312006545200,4.670545166015625,0.09702205657958984,-0.05089712142944336,-0.031529538333415985
1715439312016551000,4.680551025390625,0.11905384063720703,-0.06832480430603027,-0.0016670897603034973
1715439312026557000,4.690556884765625,0.11700153350830078,-0.04870414733886719,-0.009281560778617859
1715439312036562700,4.700562744140625,0.11480903625488281,-0.006779074668884277,-0.0024015717208385468
1715439312046568700,4.710568603515625,0.09358596801757812,0.009688377380371094,0.01982623152434826
1715439312056574500,4.720574462890625,0.0866708755493164,-0.007991433143615723,0.028692303225398064
1715439312066580500,4.73058056640625,0.08456134796142578,-0.006644487380981445,0.017196930944919586
1715439312076586200,4.740586181640625,0.03555583953857422,-0.03276169300079346,0.045471400022506714
1715439312086592300,4.75059228515625,-0.01716899871826172,-0.0669482946395874,0.08123395591974258
1715439312096598000,4.760597900390625,-0.03122997283935547,-0.1093740463256836,0.1265515387058258
1715439312106604000,4.77060400390625,-0.02618408203125,-0.09909522533416748,0.08240365236997604
1715439312116609800,4.78060986328125,-0.006960868835449219,-0.10711252689361572,0.015120232477784157
1715439312126615800,4.79061572265625,0.05910491943359375,-0.08633911609649658,0.028777537867426872
1715439312136621600,4.80062158203125,0.1192636489868164,-0.07583606243133545,0.07108644396066666
1715439312146627600,4.810627685546875,0.15468406677246094,-0.07123064994812012,0.08038192987442017
1715439312156633300,4.82063330078125,0.17050647735595703,-0.04407215118408203,0.07566262036561966
1715439312166639400,4.830639404296875,0.20937728881835938,0.00024950504302978516,0.06150369346141815
1715439312176645000,4.84064501953125,0.16722774505615234,0.0185621976852417,0.05231428146362305
1715439312186651100,4.850651123046875,-0.034404754638671875,0.01722550392150879,0.010381627827882767
1715439312196657000,4.860656982421875,-0.22765827178955078,0.003409862518310547,0.010776304639875889
1715439312206663000,4.870662841796875,-0.2853527069091797,0.016008615493774414,0.00988877285271883
1715439312216668700,4.880668701171875,-0.23334884643554688,0.026023149490356445,-0.029420016333460808
1715439312226674700,4.8906748046875,-0.1536722183227539,0.03268313407897949,-0.040512554347515106
1715439312236680400,4.900680419921875,-0.06113910675048828,0.030118107795715332,-0.02726847492158413
1715439312246686500,4.9106865234375,0.0109405517578125,0.0318986177444458,-0.05001248046755791
1715439312256692200,4.920692138671875,0.11456775665283203,0.02782595157623291,-0.005081762559711933
1715439312266698200,4.9306982421875,0.1267375946044922,0.03652775287628174,-0.016775162890553474
1715439312276704000,4.9407041015625,0.08668041229248047,0.006198287010192871,-0.046891145408153534
1715439312286709800,4.950709716796875,0.00005340576171875,-0.0008949041366577148,-0.0050701238214969635
1715439312296715800,4.9607158203125,-0.07574844360351562,-0.003365039825439453,0.02310122549533844
1715439312306721500,4.970721435546875,-0.10308170318603516,-0.00047707557678222656,-0.00018067657947540283
1715439312316727300,4.980727294921875,-0.07799243927001953,-0.0014336109161376953,-0.04260077327489853
1715439312326733000,4.990733154296875,-0.06723976135253906,0.01286613941192627,-0.039218537509441376
1715439312336739000,5.000739013671875,-0.02352142333984375,0.009107232093811035,0.004317058250308037
1715439312346744800,5.010744873046875,0.024231910705566406,-0.04136943817138672,0.013463317416608334
1715439312356750600,5.02075048828125,0.042881011962890625,-0.0677649974822998,-0.010560179129242897
1715439312366756600,5.030756591796875,0.08937835693359375,-0.06597638130187988,-0.024138517677783966
1715439312376762400,5.040762451171875,0.1630697250366211,-0.07044792175292969,-0.04975259304046631
1715439312386768100,5.05076806640625,0.1692790985107422,-0.08138108253479004,-0.001716766506433487
1715439312396774000,5.06077392578125,0.15629005432128906,-0.08413755893707275,0.027820896357297897
1715439312406780000,5.07077978515625,0.14333057403564453,-0.06903219223022461,0.028248431161046028
1715439312416785700,5.08078564453125,0.05989837646484375,-0.05919468402862549,0.051013506948947906
1715439312426791400,5.09079150390625,-0.07375526428222656,-0.029671907424926758,0.03838878124952316
1715439312436797400,5.10079736328125,-0.12002086639404297,-0.0031151771545410156,0.018929310142993927
1715439312446803200,5.11080322265625,-0.05210304260253906,0.006398677825927734,0.030742255970835686
1715439312456809000,5.12080908203125,0.05246162414550781,0.006947994232177734,0.05060206726193428
1715439312466814700,5.130814697265625,0.18331336975097656,-0.007854223251342773,0.04283762723207474
1715439312476820700,5.14082080078125,0.26905250549316406,-0.006621599197387695,0.028673507273197174
1715439312486826500,5.150826416015625,0.2115325927734375,0.010270118713378906,-0.01109291985630989
1715439312496832300,5.160832275390625,0.0746908187866211,0.011426091194152832,-0.035365987569093704
1715439312506838300,5.17083837890625,-0.008088111877441406,0.0030374526977539062,-0.01234181597828865
1715439312516844000,5.180843994140625,-0.11754989624023438,-0.013614535331726074,-0.00458647683262825
1715439312526849800,5.190849853515625,-0.17309856414794922,-0.028363347053527832,0.01108652725815773
1715439312536855600,5.20085546875,-0.14736557006835938,-0.05526018142700195,0.034638162702322006
1715439312546861600,5.210861572265625,-0.07477569580078125,-0.05233597755432129,0.033384837210178375
1715439312556867300,5.220867431640625,-0.05510139465332031,-0.03953194618225098,0.026657968759536743
1715439312566873000,5.230873046875,-0.08752822875976562,-0.026836276054382324,0.020255830138921738
1715439312576879000,5.240879150390625,-0.12404632568359375,-0.02806985378265381,0.0004076734185218811
1715439312586884900,5.250884765625,-0.1362466812133789,-0.004823207855224609,0.009188342839479446
1715439312596890600,5.260890625,-0.12919235229492188,0.005130887031555176,0.007555868476629257
1715439312606896400,5.270896484375,-0.07966136932373047,0.002012968063354492,0.042483873665332794
1715439312616902400,5.28090234375,0.020925521850585938,-0.019378185272216797,0.07074588537216187
1715439312626908200,5.290908203125,0.11501789093017578,-0.00806128978729248,0.04179359972476959
1715439312636914000,5.300913818359375,0.13660621643066406,-0.03162038326263428,0.042812224477529526
1715439312646920000,5.310919921875,0.11514949798583984,-0.03297138214111328,0.007973462343215942
1715439312656925700,5.32092578125,0.08441829681396484,0.02098250389099121,-0.020014755427837372
1715439312666931500,5.330931396484375,-0.00710296630859375,0.04527473449707031,-0.07068237662315369
1715439312676937200,5.340937255859375,-0.17694473266601562,0.03261005878448486,-0.032087281346321106
1715439312686943200,5.350943115234375,-0.26341819763183594,-0.0006418228149414062,0.01868731528520584
1715439312696949000,5.360948974609375,-0.18788433074951172,-0.025989055633544922,0.05325346812605858
1715439312706954800,5.370954833984375,-0.061575889587402344,-0.05430245399475098,0.06735841929912567
1715439312716960800,5.380960693359375,0.12375259399414062,-0.0496906042098999,0.06782354414463043
1715439312726966500,5.390966552734375,0.22547245025634766,-0.02425098419189453,0.02834932506084442
1715439312736972300,5.40097216796875,0.15552806854248047,-0.02531731128692627,-0.032624997198581696
1715439312746978000,5.41097802734375,0.006591796875,-0.03639340400695801,-0.08357207477092743
1715439312756984000,5.420984130859375,-0.09735679626464844,-0.041864991188049316,-0.09157900512218475
1715439312766989800,5.43098974609375,-0.086273193359375,-0.040911316871643066,-0.11926601082086563
1715439312776995600,5.44099560546875,0.00021839141845703125,-0.033843278884887695,-0.1061919629573822
1715439312787001600,5.451001708984375,0.11357498168945312,-0.017171382904052734,-0.05646103620529175
1715439312797007400,5.46100732421875,0.196624755859375,0.007725238800048828,-0.05919685959815979
1715439312807013000,5.47101318359375,0.2167825698852539,0.025871992111206055,-0.01022288016974926
1715439312817019000,5.481018798828125,0.1467723846435547,0.03697407245635986,0.06218777969479561
1715439312827025000,5.49102490234375,-0.025821685791015625,0.023432374000549316,0.05949507653713226
1715439312837030700,5.50103076171875,-0.1859731674194336,0.03918170928955078,0.038419242948293686
1715439312847036400,5.511036376953125,-0.2630023956298828,0.04278087615966797,0.026150429621338844
1715439312857042400,5.52104248046875,-0.2629680633544922,0.011091351509094238,0.03585607185959816
1715439312867048200,5.531048095703125,-0.14968490600585938,-0.028166770935058594,0.08709665387868881
1715439312877054000,5.541053955078125,-0.000804901123046875,-0.04424440860748291,0.10744225233793259
1715439312887059700,5.551059814453125,0.11704254150390625,-0.06638789176940918,0.08822865039110184
1715439312897065700,5.561065673828125,0.15267562866210938,-0.028067588806152344,0.0034337565302848816
1715439312907071500,5.571071533203125,0.06525611877441406,-0.0329662561416626,-0.029501229524612427
1715439312917077200,5.5810771484375,-0.011176109313964844,-0.051299095153808594,0.012184889987111092
1715439312927083300,5.591083251953125,-0.08147430419921875,-0.0638047456741333,0.06567644327878952
1715439312937089000,5.601089111328125,-0.15973472595214844,-0.07457804679870605,0.12093543261289597
1715439312947094800,5.6110947265625,-0.03408622741699219,-0.0656290054321289,0.14235088229179382
1715439312957100500,5.6211005859375,0.1220855712890625,-0.02099168300628662,0.10976670682430267
1715439312967106600,5.6311064453125,0.1717071533203125,0.03038787841796875,-0.015283886343240738
1715439312977112300,5.6411123046875,0.06491947174072266,0.12217247486114502,-0.09249351918697357
1715439312987118000,5.6511181640625,-0.12009143829345703,0.16554677486419678,-0.08485240489244461
1715439312997124000,5.6611240234375,-0.36763763427734375,0.13448894023895264,-0.026143256574869156
1715439313007129900,5.6711298828125,-0.4504690170288086,0.08785617351531982,0.10315127670764923
1715439313017135600,5.681135498046875,-0.2867698669433594,0.05784595012664795,0.14887654781341553
1715439313027141400,5.691141357421875,0.001434326171875,0.03835725784301758,0.10634801536798477
1715439313037147400,5.7011474609375,0.28475093841552734,0.06106293201446533,0.016105495393276215
1715439313047153200,5.711153076171875,0.3983173370361328,0.06324076652526855,-0.06129046902060509
1715439313057159200,5.7211591796875,0.3920440673828125,0.035816311836242676,-0.11118373274803162
1715439313067165000,5.7311650390625,0.5923376083374023,0.004995584487915039,-0.11609642207622528
1715439313077170700,5.741170654296875,0.7735462188720703,-0.10929238796234131,0.09873899817466736
1715439313087176700,5.7511767578125,0.7568521499633789,-0.17517411708831787,0.09475553035736084
1715439313097182500,5.761182373046875,0.45668888092041016,-0.11539852619171143,-0.011598743498325348
1715439313107188500,5.7711884765625,-0.012845039367675781,-0.03475046157836914,-0.13509704172611237
1715439313117194200,5.7811943359375,-0.4313840866088867,-0.008089423179626465,-0.1716921180486679
1715439313127200300,5.7912001953125,-0.6722412109375,-0.05527961254119873,-0.04364444315433502
1715439313137206000,5.8012060546875,-0.7241849899291992,-0.10373735427856445,0.045157164335250854
1715439313147212000,5.8112119140625,-0.5575952529907227,-0.12611150741577148,0.11448204517364502
1715439313157217800,5.8212177734375,-0.37881946563720703,-0.12888002395629883,0.04178319126367569
1715439313167223800,5.831223876953125,-0.1929464340209961,-0.1039813756942749,-0.0345408134162426
1715439313177229600,5.8412294921875,-0.06154823303222656,-0.08636832237243652,-0.03854556009173393
1715439313187235600,5.851235595703125,-0.02158641815185547,-0.08666205406188965,-0.034863222390413284
1715439313197241300,5.861241455078125,-0.052847862243652344,-0.08664703369140625,-0.05942555516958237
1715439313207247400,5.871247314453125,-0.1400165557861328,-0.05337059497833252,-0.110197052359581
1715439313217253000,5.881253173828125,-0.17852115631103516,-0.03416943550109863,-0.09180254489183426
1715439313227259100,5.891259033203125,-0.1785755157470703,0.013669967651367188,-0.001061812974512577
1715439313237265000,5.901264892578125,-0.09860801696777344,0.036962270736694336,0.10384943336248398
1715439313247271000,5.91127099609375,-0.00603485107421875,0.002244114875793457,0.17138731479644775
1715439313257276700,5.921276611328125,0.028245925903320312,0.032602787017822266,0.1964961737394333
1715439313267282700,5.93128271484375,0.014584541320800781,0.05141317844390869,0.14140117168426514
1715439313277288400,5.941288330078125,-0.03668022155761719,0.07370483875274658,0.08779655396938324
1715439313287294500,5.95129443359375,-0.09179878234863281,0.09091556072235107,0.06396347284317017
1715439313297300200,5.96130029296875,-0.11754417419433594,0.08541131019592285,0.021185237914323807
1715439313307306200,5.97130615234375,-0.08142662048339844,0.06237983703613281,-0.01222006231546402
1715439313317312000,5.98131201171875,0.006092071533203125,0.03613734245300293,-0.02709216997027397
1715439313327318000,5.991318115234375,0.10164833068847656,-0.00338900089263916,-0.009447712451219559
1715439313337323800,6.00132373046875,0.19091224670410156,-0.032839417457580566,-0.05891193449497223
1715439313347329800,6.011329833984375,0.29738330841064453,-0.015522003173828125,-0.08935336768627167
1715439313357335600,6.02133544921875,0.4110708236694336,-0.019657492637634277,-0.05755111575126648
1715439313367341600,6.031341552734375,0.4093151092529297,-0.04078996181488037,-0.06721822917461395
1715439313377347300,6.041347412109375,0.3365468978881836,-0.040259480476379395,-0.0997680127620697
1715439313387353300,6.051353271484375,0.2600574493408203,-0.02683115005493164,-0.09433696419000626
1715439313397359000,6.061359130859375,0.15169525146484375,-0.05231273174285889,-0.05979301035404205
1715439313407365000,6.071365234375,0.054592132568359375,-0.0677499771118164,-0.06278186291456223
1715439313417371000,6.081370849609375,0.00157928466796875,-0.04475283622741699,-0.09917105734348297
1715439313427377000,6.091376953125,-0.05499553680419922,-0.020714998245239258,-0.13613714277744293
1715439313437382700,6.101382568359375,-0.025704383850097656,-0.03383135795593262,-0.06901819258928299
1715439313447388400,6.111388427734375,0.026602745056152344,-0.04693305492401123,-0.029652435332536697
1715439313457394200,6.121394287109375,0.021478652954101562,-0.060121893882751465,-0.04677126929163933
1715439313467400200,6.131400146484375,-0.021172523498535156,-0.06336843967437744,-0.03611057624220848
1715439313477406000,6.141406005859375,-0.048854827880859375,-0.05643165111541748,-0.013016377575695515
1715439313487411700,6.15141162109375,-0.05716419219970703,-0.03978621959686279,0.03759462758898735
1715439313497417700,6.161417724609375,-0.032507896423339844,-0.02412998676300049,0.07957258820533752
1715439313507423500,6.171423583984375,-0.022596359252929688,-0.0004360675811767578,0.06593719869852066
1715439313517429200,6.18142919921875,-0.0646820068359375,0.017951011657714844,0.033491186797618866
1715439313527435300,6.191435302734375,-0.0824289321899414,0.017705440521240234,0.05224309861660004
1715439313537441000,6.20144091796875,-0.07149600982666016,-0.014785051345825195,0.04194902628660202
1715439313547446800,6.21144677734375,-0.0370330810546875,-0.04111051559448242,0.021596455946564674
1715439313557452500,6.22145263671875,0.03471565246582031,-0.03772926330566406,0.042455412447452545
1715439313567458600,6.23145849609375,0.11939716339111328,-0.039112210273742676,0.07629886269569397
1715439313577464300,6.24146435546875,0.15543270111083984,-0.05070161819458008,0.10955923050642014
1715439313587470000,6.251469970703125,0.1482248306274414,-0.044686317443847656,0.13380737602710724
1715439313597476000,6.26147607421875,0.11261749267578125,-0.02606940269470215,0.10210775583982468
1715439313607481900,6.27148193359375,0.006842613220214844,-0.01789236068725586,0.023932889103889465
1715439313617487600,6.281487548828125,-0.0688943862915039,-0.01916635036468506,-0.04931172728538513
1715439313627493400,6.291493408203125,-0.1103515625,-0.02953052520751953,-0.02253773808479309
1715439313637499400,6.30149951171875,-0.11816215515136719,-0.03501486778259277,0.00030928105115890503
1715439313647505200,6.311505126953125,-0.12578487396240234,-0.030686616897583008,-0.024487562477588654
1715439313657511000,6.321510986328125,-0.1425628662109375,-0.01630270481109619,-0.030804786831140518
1715439313667517000,6.331516845703125,-0.1305980682373047,-0.0057495832443237305,-0.06589651107788086
1715439313677522700,6.341522705078125,-0.1280975341796875,-0.013393640518188477,-0.06752526760101318
1715439313687528400,6.351528564453125,-0.1584300994873047,-0.010579109191894531,-0.011893071234226227
1715439313697534200,6.3615341796875,-0.12691497802734375,0.0164414644241333,0.015373293310403824
1715439313707540200,6.371540283203125,-0.11945247650146484,0.03369557857513428,-0.003866296261548996
1715439313717546000,6.3815458984375,-0.0932455062866211,0.04144740104675293,0.011107400059700012
1715439313727551700,6.3915517578125,-0.053310394287109375,0.07281458377838135,0.021002236753702164
1715439313737557800,6.401557861328125,0.014272689819335938,0.08041918277740479,0.006459817290306091
1715439313747563500,6.4115634765625,0.10415935516357422,0.06845295429229736,0.010854408144950867
1715439313757569300,6.4215693359375,0.13586902618408203,0.02281367778778076,-0.07325398921966553
1715439313767575000,6.431574951171875,0.17631053924560547,-0.013457179069519043,-0.07932854443788528
1715439313777581000,6.4415810546875,0.21125411987304688,-0.045021653175354004,-0.08500227332115173
1715439313787586800,6.4515869140625,0.19847488403320312,-0.08107173442840576,-0.06777298450469971
1715439313797592600,6.461592529296875,0.16240882873535156,-0.12102508544921875,-0.00038056448101997375
1715439313807598600,6.4715986328125,0.12702369689941406,-0.11281991004943848,0.05555761605501175
1715439313817604400,6.481604248046875,0.08754444122314453,-0.08581554889678955,0.06692849099636078
1715439313827610000,6.491610107421875,0.05349540710449219,-0.04012167453765869,0.09089532494544983
1715439313837615900,6.501615966796875,0.029397964477539062,0.01873302459716797,0.07604388892650604
1715439313847622000,6.511621826171875,0.014982223510742188,0.061769723892211914,0.07185415923595428
1715439313857627600,6.521627685546875,0.042984962463378906,0.09365570545196533,0.0687505304813385
1715439313867633400,6.53163330078125,0.060787200927734375,0.09984076023101807,0.04355894401669502
1715439313877639400,6.541639404296875,-0.01140594482421875,0.0905766487121582,0.024613671004772186
1715439313887645200,6.551645263671875,-0.09183216094970703,0.0578228235244751,-0.003312479704618454
1715439313897651000,6.56165087890625,-0.16132545471191406,0.01711428165435791,-0.05466552823781967
1715439313907656700,6.57165673828125,-0.16815757751464844,-0.030806422233581543,-0.025465700775384903
1715439313917662700,6.581662841796875,-0.14631271362304688,-0.04334139823913574,-0.035398680716753006
1715439313927668500,6.59166845703125,-0.07752609252929688,-0.026297330856323242,-0.06045222282409668
1715439313937674200,6.60167431640625,-0.009866714477539062,-0.014142870903015137,-0.03784187510609627
1715439313947680300,6.61168017578125,0.06116962432861328,-0.007913470268249512,-0.008810386061668396
1715439313957686000,6.62168603515625,0.0742197036743164,-0.012727975845336914,0.021584678441286087
1715439313967691800,6.63169189453125,0.0538787841796875,-0.01857900619506836,0.009439099580049515
1715439313977697500,6.641697509765625,0.019639968872070312,0.008017897605895996,0.010929740965366364
1715439313987703600,6.65170361328125,-0.03760814666748047,-0.017827749252319336,0.049720436334609985
1715439313997709300,6.661709228515625,-0.10327816009521484,-0.03833329677581787,0.05921158567070961
1715439314007715000,6.671715087890625,-0.13002586364746094,-0.034143924713134766,0.04837566986680031
1715439314017721000,6.68172119140625,-0.12322521209716797,-0.024605989456176758,0.04565829783678055
1715439314027726800,6.691726806640625,-0.10698604583740234,-0.02393519878387451,0.03820124641060829
1715439314037732600,6.701732666015625,-0.08624839782714844,-0.018262147903442383,0.01183159276843071
1715439314047738400,6.71173828125,-0.10811614990234375,-0.01678323745727539,0.004431866109371185
1715439314057744400,6.721744384765625,-0.14358901977539062,-0.00980675220489502,-0.002988915890455246
1715439314067750100,6.731750244140625,-0.15004253387451172,-0.02086818218231201,-0.0105891153216362
1715439314077756000,6.741755859375,-0.09512519836425781,-0.03144228458404541,-0.007345017045736313
1715439314087762000,6.751761962890625,-0.008213996887207031,-0.06558942794799805,0.026047661900520325
1715439314097767700,6.761767578125,0.04895496368408203,-0.06170499324798584,0.03114374727010727
1715439314107773700,6.771773681640625,0.0911111831665039,-0.043459296226501465,-0.002542838454246521
1715439314117779500,6.781779541015625,0.14198875427246094,-0.04435324668884277,0.020086325705051422
1715439314127785500,6.791785400390625,0.15895938873291016,-0.06928467750549316,0.06610704958438873
1715439314137791200,6.801791259765625,0.17545318603515625,-0.06185424327850342,0.03581991046667099
1715439314147797200,6.81179736328125,0.20550537109375,-0.02781379222869873,0.034285180270671844
1715439314157803000,6.821802978515625,0.1876544952392578,-0.010089278221130371,0.05205526947975159
1715439314167809000,6.83180908203125,0.15568161010742188,0.0011098384857177734,0.017996259033679962
1715439314177814800,6.841814697265625,0.05344200134277344,0.030043840408325195,-0.020754694938659668
1715439314187820800,6.85182080078125,-0.06592178344726562,0.053789496421813965,-0.021621420979499817
1715439314197826600,6.86182666015625,-0.15486812591552734,0.02155160903930664,0.03404860198497772
1715439314207832600,6.87183251953125,-0.1949939727783203,-0.0041207075119018555,0.07482937723398209
1715439314217838300,6.88183837890625,-0.1729879379272461,-0.018629908561706543,0.06778667867183685
1715439314227844400,6.89184423828125,-0.09946250915527344,-0.01826643943786621,0.07103274017572403
1715439314237850000,6.90185009765625,-0.04129314422607422,-0.013203978538513184,0.06052885204553604
1715439314247856000,6.911856201171875,-0.012387275695800781,0.01511073112487793,0.04111114889383316
1715439314257862000,6.92186181640625,-0.0028581619262695312,0.014394879341125488,0.012846194207668304
1715439314267868000,6.931867919921875,-0.012401580810546875,-0.0008413791656494141,0.008778989315032959
1715439314277873700,6.941873779296875,-0.017198562622070312,-0.002308487892150879,-0.008674480020999908
1715439314287879700,6.951879638671875,-0.03608512878417969,0.005462527275085449,-0.053397420793771744
1715439314297885400,6.961885498046875,-0.08278560638427734,0.013716578483581543,-0.10291936993598938
1715439314307891500,6.971891357421875,-0.07666683197021484,0.041889190673828125,-0.08722244203090668
1715439314317897200,6.981897216796875,-0.0845346450805664,0.06610345840454102,-0.07314934581518173
1715439314327903200,6.9919033203125,-0.06858539581298828,0.08591747283935547,-0.031812380999326706
1715439314337909000,7.001908935546875,-0.024656295776367188,0.11011195182800293,0.028539657592773438
1715439314347914800,7.011914794921875,0.037247657775878906,0.10975492000579834,0.02346251904964447
1715439314357920800,7.021920654296875,0.09330940246582031,0.0806502103805542,-0.01847444847226143
1715439314367926500,7.031926513671875,0.1436300277709961,0.013860106468200684,-0.021807029843330383
1715439314377932500,7.0419326171875,0.17415618896484375,-0.09479928016662598,-0.024175751954317093
1715439314387938300,7.051938232421875,0.18519973754882812,-0.17881429195404053,-0.044691089540719986
1715439314397944300,7.0619443359375,0.17706584930419922,-0.215157151222229,-0.07348772138357162
1715439314407950000,7.0719501953125,0.1501140594482422,-0.2467970848083496,-0.09177646040916443
1715439314417956000,7.0819560546875,0.0906362533569336,-0.20738518238067627,-0.06790870428085327
1715439314427961900,7.0919619140625,0.03220176696777344,-0.19668221473693848,-0.02300441265106201
1715439314437968000,7.1019677734375,-0.029937744140625,-0.15309906005859375,0.051881156861782074
1715439314447973600,7.1119736328125,-0.07690906524658203,-0.09141254425048828,0.0865575298666954
1715439314457979600,7.121979736328125,-0.10423946380615234,-0.03065621852874756,0.04467470943927765
1715439314467985400,7.1319853515625,-0.11219978332519531,0.024782776832580566,-0.02033340558409691
1715439314477991400,7.141991455078125,-0.09628582000732422,0.07560718059539795,-0.08951731771230698
1715439314487997200,7.1519970703125,-0.07106781005859375,0.10756456851959229,-0.11460432410240173
1715439314498003000,7.1620029296875,-0.06510448455810547,0.07317554950714111,-0.1081443727016449
1715439314508009000,7.172009033203125,-0.045215606689453125,0.05307972431182861,-0.027387525886297226
1715439314518014700,7.1820146484375,-0.016336441040039062,0.06116306781768799,-0.03441419079899788
1715439314528020500,7.1920205078125,-0.011460304260253906,0.08333814144134521,0.001966997981071472
1715439314538026500,7.202026611328125,0.012253761291503906,0.10083997249603271,0.06987036019563675
1715439314548032300,7.2120322265625,0.01682567596435547,0.10903680324554443,0.1255234330892563
1715439314558038000,7.2220380859375,0.03082561492919922,0.10808396339416504,0.17321071028709412
1715439314568043800,7.232043701171875,0.10587024688720703,0.08390629291534424,0.19851380586624146
1715439314578049800,7.2420498046875,0.17014312744140625,0.07835400104522705,0.13618962466716766
1715439314588055600,7.2520556640625,0.17659759521484375,0.0668647289276123,0.06436926871538162
1715439314598061300,7.262061279296875,0.1356067657470703,0.030703186988830566,0.018139321357011795
1715439314608067300,7.2720673828125,0.08095741271972656,0.02227950096130371,-0.08273066580295563
1715439314618073000,7.282072998046875,0.008282661437988281,0.004073739051818848,-0.10514568537473679
1715439314628078800,7.292078857421875,-0.039664268493652344,-0.0233457088470459,-0.07849985361099243
1715439314638084600,7.302084716796875,-0.07733917236328125,-0.07354509830474854,-0.03281576558947563
1715439314648090600,7.312090576171875,-0.15189743041992188,-0.07500970363616943,-0.01208430901169777
1715439314658096400,7.322096435546875,-0.17791366577148438,-0.08004140853881836,0.00732952356338501
1715439314668102100,7.33210205078125,-0.16559410095214844,-0.07435429096221924,-0.0029240548610687256
1715439314678108200,7.342108154296875,-0.12977981567382812,-0.06795036792755127,-0.009250249713659286
1715439314688114000,7.352114013671875,-0.0992136001586914,-0.04251527786254883,-0.0014846287667751312
1715439314698119700,7.36211962890625,-0.08797264099121094,-0.012694835662841797,-0.04085177183151245
1715439314708125400,7.37212548828125,-0.03921222686767578,0.012124300003051758,-0.0464436374604702
1715439314718131500,7.38213134765625,0.004048347473144531,-0.00574493408203125,-0.047499917447566986
1715439314728137200,7.39213720703125,0.004214286804199219,-0.028023362159729004,-0.0348629504442215
1715439314738143000,7.40214306640625,-0.014521598815917969,-0.045525312423706055,-0.021180327981710434
1715439314748149000,7.41214892578125,-0.000034332275390625,-0.03939616680145264,0.0037022270262241364
1715439314758154800,7.42215478515625,-0.014001846313476562,-0.03316664695739746,-0.004707787185907364
1715439314768160500,7.432160400390625,-0.0134735107421875,-0.01691460609436035,-0.018435075879096985
1715439314778166300,7.442166259765625,-0.017505645751953125,-0.009540081024169922,0.019518043845891953
1715439314788172300,7.45217236328125,0.025712013244628906,-0.01590859889984131,0.05217361077666283
1715439314798178000,7.462177978515625,0.10578060150146484,-0.04622316360473633,0.04686250537633896
1715439314808183800,7.472183837890625,0.1607952117919922,-0.053401947021484375,0.023230548948049545
1715439314818189800,7.48218994140625,0.15817832946777344,-0.023906946182250977,-0.03761830925941467
1715439314828195600,7.492195556640625,0.1225137710571289,-0.023861289024353027,-0.05082147568464279
1715439314838201300,7.502201416015625,0.1014556884765625,-0.03384041786193848,-0.007712583988904953
1715439314848207000,7.51220703125,0.04769134521484375,-0.05357789993286133,0.02998846024274826
1715439314858213000,7.522213134765625,0.013619422912597656,-0.030812978744506836,0.04820737615227699
1715439314868219000,7.532218994140625,-0.015137672424316406,-0.027059197425842285,0.0661032497882843
1715439314878224600,7.542224609375,-0.010336875915527344,-0.008633613586425781,0.06452304124832153
1715439314888230700,7.552230712890625,0.008591651916503906,-0.013652205467224121,0.057326871901750565
1715439314898236400,7.562236328125,0.050830841064453125,-0.018180131912231445,0.07300003618001938
1715439314908242200,7.5722421875,0.1064310073852539,-0.01352083683013916,0.09821614623069763
1715439314918248000,7.582248046875,0.11382484436035156,0.004168272018432617,0.08558989316225052
1715439314928254000,7.59225390625,0.05972766876220703,-0.0027960538864135742,0.07372590154409409
1715439314938259700,7.602259765625,-0.012285232543945312,-0.00012731552124023438,0.062122754752635956
1715439314948265500,7.612265380859375,-0.045269012451171875,-0.006108522415161133,0.06419040262699127
1715439314958271500,7.622271484375,0.011841773986816406,-0.030418872833251953,0.05146876722574234
1715439314968277200,7.63227734375,0.07729911804199219,-0.050226569175720215,0.04415687918663025
1715439314978283000,7.642282958984375,0.08019447326660156,-0.009814858436584473,-0.008695609867572784
1715439314988288800,7.652288818359375,0.035696983337402344,0.038019418716430664,-0.07824250310659409
1715439314998294800,7.662294677734375,-0.06942367553710938,0.037158846855163574,-0.11340878903865814
1715439315008300500,7.672300537109375,-0.21505069732666016,0.027507424354553223,-0.09154921770095825
1715439315018306300,7.682306396484375,-0.31081295013427734,0.010430693626403809,-0.08982283622026443
1715439315028312300,7.692312255859375,-0.28673744201660156,0.010509371757507324,-0.07605128735303879
1715439315038318000,7.702318115234375,-0.18722820281982422,0.00841665267944336,-0.07478893548250198
1715439315048323800,7.71232373046875,-0.037281036376953125,0.003171086311340332,-0.07989829033613205
1715439315058329600,7.72232958984375,0.08192825317382812,0.021556735038757324,-0.04812861233949661
1715439315068335600,7.732335693359375,0.18008041381835938,0.05244457721710205,-0.022149480879306793
1715439315078341400,7.74234130859375,0.17253589630126953,0.033297061920166016,-0.013573519885540009
1715439315088347400,7.752347412109375,0.07053852081298828,0.021857261657714844,0.016289249062538147
1715439315098353200,7.762353271484375,-0.0016603469848632812,-0.013643860816955566,0.00995367020368576
1715439315108359200,7.772359130859375,-0.06786060333251953,-0.005664706230163574,-0.004823558032512665
1715439315118365000,7.782364990234375,-0.09976959228515625,-0.015430092811584473,-0.023904338479042053
1715439315128371000,7.792370849609375,-0.08385658264160156,-0.028620600700378418,0.004984140396118164
1715439315138376700,7.802376708984375,-0.0304718017578125,-0.04118502140045166,0.06716408580541611
1715439315148382700,7.8123828125,0.036083221435546875,-0.05384945869445801,0.11491819471120834
1715439315158388500,7.822388427734375,0.0966644287109375,-0.043576598167419434,0.12904314696788788
1715439315168394500,7.83239453125,0.12775802612304688,-0.034699440002441406,0.11898970603942871
1715439315178400300,7.842400146484375,0.10631370544433594,-0.04132246971130371,0.12291215360164642
1715439315188406300,7.85240625,0.019196510314941406,-0.029617905616760254,0.11212284862995148
1715439315198412000,7.862412109375,-0.047547340393066406,-0.0224153995513916,0.0346023365855217
1715439315208418000,7.87241796875,-0.070556640625,0.000014781951904296875,-0.02417643368244171
1715439315218423800,7.882423828125,-0.06941699981689453,0.01377415657043457,-0.035867564380168915
1715439315228429800,7.892429931640625,-0.03995323181152344,0.008984923362731934,-0.051754750311374664
1715439315238435600,7.902435546875,0.012452125549316406,0.027312874794006348,-0.023640625178813934
1715439315248441600,7.912441650390625,0.03546142578125,0.04401540756225586,0.0013476386666297913
1715439315258447400,7.922447265625,0.00611114501953125,0.059523582458496094,-0.010751895606517792
1715439315268453400,7.932453369140625,-0.036930084228515625,0.07446813583374023,-0.00391678512096405
1715439315278459100,7.942459228515625,-0.08869743347167969,0.07022333145141602,-0.005875140428543091
1715439315288465200,7.952465087890625,-0.12073135375976562,0.04270899295806885,-0.012121804058551788
1715439315298471000,7.962470947265625,-0.13321781158447266,0.021275877952575684,-0.004868894815444946
1715439315308477000,7.972476806640625,-0.12167739868164062,0.0016237497329711914,-0.02718905359506607
1715439315318482700,7.982482666015625,-0.05360984802246094,-0.011873006820678711,-0.05943117290735245
1715439315328488400,7.992488525390625,0.027545928955078125,-0.03875851631164551,-0.09617560356855392
