time,seconds_elapsed,z,y,x
1712268082306678800,0.1406787109375,0.1483926773071289,0.35820674896240234,-0.6965256333351135
1712268082316678700,0.1506787109375,0.14981937408447266,0.34554076194763184,-0.6757810115814209
1712268082326678300,0.16067822265625,1.1210699081420898,0.002586841583251953,-1.2621134519577026
1712268082336678000,0.170677978515625,1.2249479293823242,-0.1251208782196045,-1.3027476072311401
1712268082346677200,0.18067724609375,1.1655702590942383,-0.24623537063598633,-1.3611505031585693
1712268082356676900,0.1906767578125,1.0066022872924805,-0.3309762477874756,-1.3810480833053589
1712268082366676200,0.20067626953125,0.8509702682495117,-0.2857856750488281,-1.305410385131836
1712268082376675800,0.21067578125,0.7990150451660156,-0.12857317924499512,-1.2219135761260986
1712268082386675200,0.22067529296875,0.8169059753417969,0.02969527244567871,-1.12943434715271
1712268082396674600,0.230674560546875,0.8851728439331055,0.1639716625213623,-1.0162997245788574
1712268082406674200,0.240674072265625,0.9030008316040039,0.21710705757141113,-0.9715585112571716
1712268082416673500,0.250673583984375,0.8415498733520508,0.18877172470092773,-0.973835289478302
1712268082426673000,0.2606728515625,0.6960439682006836,0.1098017692565918,-0.9218025803565979
1712268082436672300,0.27067236328125,0.605560302734375,0.07051992416381836,-0.9331140518188477
1712268082446671600,0.280671630859375,0.4772024154663086,0.04783892631530762,-1.0228642225265503
1712268082456671000,0.2906708984375,0.3396263122558594,0.011377096176147461,-1.0511488914489746
1712268082466670600,0.300670654296875,0.26483917236328125,-0.02924656867980957,-1.0943882465362549
1712268082476670000,0.310669921875,0.2361459732055664,-0.04262876510620117,-1.0801138877868652
1712268082486669300,0.32066943359375,0.2393045425415039,-0.06021738052368164,-1.0064877271652222
1712268082496668700,0.330668701171875,0.18571090698242188,-0.034067630767822266,-0.8903192281723022
1712268082506668000,0.34066796875,0.09436702728271484,-0.05263948440551758,-0.8115764260292053
1712268082516667400,0.35066748046875,-0.04928779602050781,-0.08202457427978516,-0.7211049795150757
1712268082526666500,0.36066650390625,-0.12342453002929688,-0.06868457794189453,-0.6637783646583557
1712268082536665900,0.370665771484375,-0.1570453643798828,-0.06444764137268066,-0.6366202235221863
1712268082546665000,0.3806650390625,-0.19120216369628906,-0.10877847671508789,-0.7064956426620483
1712268082556664300,0.390664306640625,-0.2642402648925781,-0.1776595115661621,-0.7750397324562073
1712268082566663400,0.400663330078125,-0.34261035919189453,-0.2113044261932373,-0.8376180529594421
1712268082576662500,0.41066259765625,-0.34943485260009766,-0.24134564399719238,-0.838421642780304
1712268082586662000,0.420661865234375,-0.33228206634521484,-0.2421565055847168,-0.807918906211853
1712268082596661000,0.430660888671875,-0.3339853286743164,-0.2337484359741211,-0.7753049731254578
1712268082606660000,0.44066015625,-0.34729480743408203,-0.24529600143432617,-0.7398985624313354
1712268082616659200,0.4506591796875,-0.3555479049682617,-0.23580312728881836,-0.6703030467033386
1712268082626658300,0.460658203125,-0.3588838577270508,-0.1976923942565918,-0.649924635887146
1712268082636657200,0.4706572265625,-0.3431062698364258,-0.16634559631347656,-0.6855867505073547
1712268082646656300,0.48065625,-0.30377960205078125,-0.14079999923706055,-0.7210401296615601
1712268082656655400,0.4906552734375,-0.23633670806884766,-0.1418139934539795,-0.7586455345153809
1712268082666654200,0.500654296875,-0.23654937744140625,-0.17648577690124512,-0.8083089590072632
1712268082676653000,0.510653076171875,-0.15105056762695312,-0.19263935089111328,-0.8172810077667236
1712268082686652200,0.520652099609375,-0.005961418151855469,-0.16678643226623535,-0.7676251530647278
1712268082696651000,0.530651123046875,0.08184528350830078,-0.14800667762756348,-0.7375397086143494
1712268082706649900,0.54064990234375,0.11501789093017578,-0.13057947158813477,-0.6962477564811707
1712268082716648700,0.550648681640625,0.10313987731933594,-0.08119630813598633,-0.6645870804786682
1712268082726647600,0.5606474609375,0.11067771911621094,-0.016082763671875,-0.6565936207771301
1712268082736646400,0.570646484375,0.16863059997558594,0.010239124298095703,-0.6772774457931519
1712268082746645200,0.580645263671875,0.21941375732421875,0.010192394256591797,-0.6596805453300476
1712268082756644000,0.59064404296875,0.27500438690185547,0.005265951156616211,-0.6275602579116821
1712268082766642700,0.600642578125,0.29953956604003906,0.007086277008056641,-0.6666176319122314
1712268082776641500,0.6106416015625,0.31223106384277344,-0.01827836036682129,-0.6683721542358398
1712268082786640100,0.62064013671875,0.29860782623291016,-0.06574487686157227,-0.6828719973564148
1712268082796639000,0.630638916015625,0.24863815307617188,-0.06942152976989746,-0.5539370775222778
1712268082806637600,0.640637451171875,0.21165180206298828,-0.05408978462219238,-0.5038301944732666
1712268082816636400,0.650636474609375,0.2018260955810547,-0.0988771915435791,-0.43067771196365356
1712268082826635000,0.660635009765625,0.2810945510864258,-0.11207699775695801,-0.3436904549598694
1712268082836633900,0.6706337890625,0.39162731170654297,-0.05219912528991699,-0.2768550515174866
1712268082846632700,0.6806328125,0.45894527435302734,-0.05944466590881348,-0.2432388961315155
1712268082856631300,0.69063134765625,0.358795166015625,-0.07751154899597168,-0.2629878520965576
1712268082866630000,0.7006298828125,0.26375579833984375,-0.12636375427246094,-0.23466014862060547
1712268082876628700,0.710628662109375,0.2026071548461914,-0.16272330284118652,-0.20505860447883606
1712268082886627600,0.720627685546875,0.20653057098388672,-0.14816951751708984,-0.17558446526527405
1712268082896626200,0.730626220703125,0.4215583801269531,-0.18300890922546387,-0.060722023248672485
1712268082906625000,0.740625,0.48117923736572266,-0.22580766677856445,0.03670591115951538
1712268082916623600,0.75062353515625,0.40934085845947266,-0.2387099266052246,0.06524360179901123
1712268082926622500,0.76062255859375,0.3256959915161133,-0.0634469985961914,-0.023846596479415894
1712268082936621300,0.770621337890625,0.3266763687133789,0.12346625328063965,-0.18093326687812805
1712268082946620000,0.780619873046875,0.34825611114501953,0.1050574779510498,-0.2868475615978241
1712268082956618800,0.79061865234375,0.1325387954711914,-0.2670705318450928,-0.2960669994354248
1712268082966617600,0.80061767578125,-0.23673248291015625,-0.5496249198913574,-0.2470804750919342
1712268082976616200,0.8106162109375,-0.6570358276367188,-0.34581732749938965,-0.09657624363899231
1712268082986615000,0.820614990234375,-0.650507926940918,0.2592287063598633,0.12378435581922531
1712268082996613600,0.830613525390625,-0.1292409896850586,0.7361810207366943,0.09678492695093155
1712268083006612500,0.840612548828125,0.5458841323852539,1.0659315586090088,-0.24215324223041534
1712268083016611300,0.850611328125,1.153573989868164,0.8967976570129395,-0.6124700307846069
1712268083026610000,0.86060986328125,1.3216161727905273,0.3469693660736084,-0.9243778586387634
1712268083036608800,0.87060888671875,1.1683120727539062,-0.11441707611083984,-1.265402913093567
1712268083046607600,0.880607666015625,0.7343235015869141,-0.29480743408203125,-1.486814260482788
1712268083056606200,0.890606201171875,0.3830270767211914,-0.19397211074829102,-1.442525863647461
1712268083066605000,0.90060498046875,0.10860252380371094,0.036174774169921875,-1.35145902633667
1712268083076603600,0.910603759765625,0.10674476623535156,0.19426274299621582,-1.2975882291793823
1712268083086602500,0.9206025390625,0.3900423049926758,0.18069815635681152,-1.3155218362808228
1712268083096601300,0.930601318359375,0.9825458526611328,0.10227847099304199,-1.4611093997955322
1712268083106600000,0.940599853515625,1.856924057006836,0.05706620216369629,-1.461572289466858
1712268083116598800,0.950598876953125,1.249882698059082,-0.07247591018676758,-1.2736328840255737
1712268083126597600,0.96059765625,-0.44314002990722656,0.12792634963989258,-0.8432263135910034
1712268083136596200,0.97059619140625,-1.9437108039855957,0.5629353523254395,-0.6377654075622559
1712268083146594800,0.9805947265625,-2.4475221633911133,0.5225872993469238,-0.43487173318862915
1712268083156593700,0.99059375,-1.8670878410339355,0.2826690673828125,-0.08797919750213623
1712268083166592300,1.00059228515625,-0.8593096733093262,0.1381816864013672,0.036759018898010254
1712268083176591000,1.010591064453125,-0.5803484916687012,-0.022965431213378906,-0.08601260185241699
1712268083186589700,1.020589599609375,-1.11967134475708,-0.2581820487976074,-0.22752416133880615
1712268083196588500,1.030588623046875,-1.9942946434020996,-0.4862380027770996,-0.28382718563079834
1712268083206587400,1.04058740234375,-2.661658763885498,-0.6655206680297852,-0.2058044672012329
1712268083216586000,1.0505859375,-3.168025493621826,-0.974602460861206,-0.07351994514465332
1712268083226584800,1.060584716796875,-3.8704495429992676,-1.4606828689575195,0.08798843622207642
1712268083236583400,1.07058349609375,-5.278703689575195,-2.365595579147339,0.4003339409828186
1712268083246582300,1.080582275390625,-7.443982124328613,-2.7461676597595215,0.9830133318901062
1712268083256580900,1.090580810546875,-8.684281349182129,-2.266697645187378,1.8023805618286133
1712268083266579700,1.100579833984375,-8.609758377075195,-1.7653539180755615,2.276237964630127
1712268083276578600,1.11057861328125,-8.518134117126465,-2.488192319869995,1.5681418180465698
1712268083286577200,1.1205771484375,-9.363687515258789,-4.099869728088379,-0.2183307409286499
1712268083296576000,1.130575927734375,-10.14309024810791,-5.176033973693848,-2.108790874481201
1712268083306574600,1.14057470703125,-9.656270027160645,-5.93320369720459,-3.4785680770874023
1712268083316573400,1.150573486328125,-7.4967122077941895,-6.065004348754883,-4.664844512939453
1712268083326572300,1.160572265625,-4.669095039367676,-6.229716777801514,-5.39738655090332
1712268083336571000,1.17057080078125,-2.306974411010742,-6.634749412536621,-4.967999458312988
1712268083346569700,1.18056982421875,-1.1953315734863281,-5.974541664123535,-3.192164897918701
1712268083356568600,1.190568603515625,-1.0269460678100586,-4.623219013214111,-0.9813371896743774
1712268083366567200,1.200567138671875,-0.8820466995239258,-3.4718804359436035,1.5480995178222656
1712268083376566000,1.21056591796875,-0.08277416229248047,-2.8615167140960693,3.4174792766571045
1712268083386564600,1.220564697265625,1.2397470474243164,-2.5387542247772217,3.8823275566101074
1712268083396563500,1.2305634765625,2.873612403869629,-2.4197819232940674,2.827967405319214
1712268083406562300,1.240562255859375,4.165735244750977,-2.4007787704467773,0.7867540717124939
1712268083416561000,1.250560791015625,4.900687217712402,-2.147801399230957,-0.13968944549560547
1712268083426559700,1.260559814453125,5.033749580383301,-1.668567180633545,-0.7417730093002319
1712268083436558600,1.27055859375,4.507684707641602,-0.7534139156341553,-0.6977948546409607
1712268083446557200,1.28055712890625,3.589284896850586,-0.2668178081512451,0.19061419367790222
1712268083456556000,1.29055615234375,3.0911149978637695,-0.2738955020904541,0.5528779625892639
1712268083466555000,1.300554931640625,2.7052860260009766,-0.23203539848327637,0.3176208734512329
1712268083476553700,1.3105537109375,2.102231025695801,-0.458233118057251,-0.05730336904525757
1712268083486552600,1.320552490234375,2.270364761352539,-0.6955826282501221,-0.5160473585128784
1712268083496551400,1.330551513671875,3.736626625061035,-0.4071171283721924,-0.880223274230957
1712268083506550300,1.34055029296875,5.789873123168945,0.1273791790008545,-0.8614315986633301
1712268083516549400,1.35054931640625,7.239702224731445,0.43291664123535156,-0.6130275130271912
1712268083526548500,1.360548583984375,8.142566680908203,0.6225087642669678,-0.49461597204208374
1712268083536547300,1.37054736328125,8.222199440002441,0.674001932144165,-0.2577008903026581
1712268083546546400,1.38054638671875,7.411103248596191,0.5433807373046875,0.0949455052614212
1712268083556545500,1.390545654296875,6.2623291015625,0.2705559730529785,0.058164749294519424
1712268083566544400,1.40054443359375,5.517458915710449,-0.5147881507873535,-0.6188877820968628
1712268083576543500,1.41054345703125,3.4739599227905273,-0.6667094230651855,-0.847002387046814
1712268083586542600,1.42054248046875,5.255316734313965,-0.07933235168457031,-3.257430076599121
1712268083596541700,1.430541748046875,4.641074180603027,-1.933152198791504,-3.2097008228302
1712268083606540800,1.440540771484375,3.8931121826171875,-1.7366762161254883,-2.9199576377868652
1712268083616540000,1.450539794921875,3.8189029693603516,-1.2822823524475098,-2.6778600215911865
1712268083626539000,1.4605390625,3.8961896896362305,-1.445939540863037,-2.4792845249176025
1712268083636537900,1.470537841796875,3.838602066040039,-1.7014217376708984,-2.544166088104248
1712268083646537000,1.480536865234375,3.6750755310058594,-1.68701171875,-2.6736819744110107
1712268083656536000,1.4905361328125,3.5509557723999023,-1.2585110664367676,-2.4187965393066406
1712268083666535200,1.50053515625,3.407215118408203,-0.7665672302246094,-1.9260506629943848
1712268083676534000,1.510533935546875,3.682980537414551,-0.1320943832397461,-1.213289737701416
1712268083686533000,1.520533203125,4.414019584655762,0.4902775287628174,-0.7745288014411926
1712268083696532200,1.5305322265625,5.510006904602051,1.0767405033111572,-0.7491426467895508
1712268083706531300,1.54053125,6.404791831970215,1.493974208831787,-0.40365076065063477
1712268083716530400,1.550530517578125,5.950251579284668,0.9173979759216309,-0.21572409570217133
1712268083726529500,1.560529541015625,4.056509971618652,-0.3543410301208496,-0.6505345106124878
1712268083736528600,1.570528564453125,2.7026586532592773,-1.0388226509094238,-1.343535304069519
1712268083746527500,1.580527587890625,3.0670652389526367,-1.1736681461334229,-1.998848557472229
1712268083756526600,1.590526611328125,3.5101795196533203,-1.159688949584961,-1.8624168634414673
1712268083766525700,1.600525634765625,3.412973403930664,-1.2651259899139404,-1.4807952642440796
1712268083776524500,1.610524658203125,2.679429054260254,-1.454576015472412,-1.4048620462417603
1712268083786523400,1.6205234375,1.7010173797607422,-1.9510737657546997,-1.540116548538208
1712268083796522500,1.6305224609375,0.974970817565918,-2.3100438117980957,-1.7493351697921753
1712268083806521000,1.64052099609375,0.29122257232666016,-2.4163143634796143,-1.7244408130645752
1712268083816520000,1.65052001953125,-0.5977306365966797,-2.5032260417938232,-1.6648143529891968
1712268083826518800,1.660518798828125,-1.681422233581543,-2.6094889640808105,-1.5388469696044922
1712268083836517600,1.670517578125,-2.6191182136535645,-2.584038734436035,-1.2450339794158936
1712268083846516200,1.68051611328125,-3.42081880569458,-2.446089744567871,-0.8264153599739075
1712268083856515000,1.69051513671875,-3.8564114570617676,-2.279719352722168,-0.44790127873420715
1712268083866514000,1.700513916015625,-3.4953694343566895,-1.8958423137664795,-0.05997264385223389
1712268083876512500,1.710512451171875,-2.642062187194824,-1.3334702253341675,0.1902294009923935
1712268083886511000,1.720510986328125,-2.0212931632995605,-1.0907344818115234,0.08261781930923462
1712268083896510000,1.730510009765625,-1.8876729011535645,-1.1590172052383423,-0.008297592401504517
1712268083906508500,1.740508544921875,-2.2490482330322266,-1.4541881084442139,-0.1832435429096222
1712268083916507400,1.75050732421875,-2.8510680198669434,-1.5727713108062744,-0.46505022048950195
1712268083926506000,1.760506103515625,-3.2060322761535645,-1.5901068449020386,-0.5905084013938904
1712268083936504800,1.7705048828125,-3.3223581314086914,-1.5735247135162354,-0.3099610209465027
1712268083946503400,1.78050341796875,-3.1930055618286133,-1.4585373401641846,0.050644874572753906
1712268083956502300,1.790502197265625,-2.9966983795166016,-1.2463123798370361,0.487027645111084
1712268083966501000,1.800501220703125,-2.9552407264709473,-1.2544736862182617,0.6807060241699219
1712268083976499700,1.810499755859375,-3.1883411407470703,-1.4256618022918701,0.7046278715133667
1712268083986498600,1.82049853515625,-3.430616855621338,-1.344783067703247,0.7211023569107056
1712268083996497200,1.8304970703125,-3.378699779510498,-1.3233592510223389,0.6125404834747314
1712268084006496000,1.84049609375,-3.2125930786132812,-1.4666428565979004,0.49373137950897217
1712268084016494800,1.850494873046875,-3.062807083129883,-1.5742900371551514,0.2521634101867676
1712268084026493400,1.860493408203125,-2.7315425872802734,-1.639469861984253,0.07889115810394287
1712268084036492300,1.8704921875,-1.982675552368164,-1.7063393592834473,0.11271083354949951
1712268084046491100,1.8804912109375,-1.1886157989501953,-1.5712809562683105,0.16886568069458008
1712268084056489700,1.89048974609375,-0.694486141204834,-1.4025671482086182,0.05046951770782471
1712268084066488600,1.900488525390625,-0.45514869689941406,-1.2439448833465576,-0.035860300064086914
1712268084076487200,1.910487060546875,-0.4425334930419922,-1.1181097030639648,-0.03452897071838379
1712268084086486000,1.920486083984375,-0.45893001556396484,-0.9951944351196289,-0.04374980926513672
1712268084096484900,1.93048486328125,-0.33113956451416016,-0.7815370559692383,0.07886981964111328
1712268084106483700,1.940483642578125,-0.1677227020263672,-0.5449607372283936,0.18714523315429688
1712268084116482300,1.950482421875,0.25093746185302734,-0.3807559013366699,0.12813079357147217
1712268084126481200,1.960481201171875,0.5197830200195312,-0.2934126853942871,0.020955204963684082
1712268084136479700,1.970479736328125,0.6125650405883789,-0.2839226722717285,-0.14599835872650146
1712268084146478600,1.980478515625,0.7002840042114258,-0.28959131240844727,-0.29861581325531006
1712268084156477400,1.9904775390625,0.7520351409912109,-0.10976505279541016,-0.34622931480407715
1712268084166476000,2.00047607421875,0.78472900390625,0.1550302505493164,-0.21117162704467773
1712268084176475000,2.010474853515625,0.84344482421875,0.28722524642944336,-0.09069299697875977
1712268084186473500,2.020473388671875,0.8875627517700195,0.3629889488220215,0.027974247932434082
1712268084196472300,2.030472412109375,0.7972116470336914,0.5064449310302734,-0.003926515579223633
1712268084206471200,2.04047119140625,0.7463512420654297,0.5628204345703125,-0.14560186862945557
1712268084216469800,2.0504697265625,0.6625280380249023,0.49028587341308594,-0.31083381175994873
1712268084226468600,2.060468505859375,0.6150264739990234,0.46662425994873047,-0.3952365517616272
1712268084236467500,2.070467529296875,0.7047882080078125,0.589902400970459,-0.4104853868484497
1712268084246466000,2.080466064453125,0.9154119491577148,0.6469063758850098,-0.399188756942749
1712268084256465000,2.09046484375,0.989130973815918,0.6359176635742188,-0.444896399974823
1712268084266463500,2.10046337890625,0.9025802612304688,0.58636474609375,-0.5242733955383301
1712268084276462300,2.11046240234375,0.8660306930541992,0.5370259284973145,-0.5928059220314026
1712268084286461000,2.1204609375,0.785609245300293,0.4508781433105469,-0.7111071348190308
1712268084296459800,2.130459716796875,0.6440296173095703,0.41002511978149414,-0.748580813407898
1712268084306458400,2.140458251953125,0.6873435974121094,0.369997501373291,-0.7670567035675049
1712268084316457200,2.150457275390625,0.7743062973022461,0.31212425231933594,-0.7633203268051147
1712268084326455800,2.160455810546875,0.7975826263427734,0.2311549186706543,-0.7886301279067993
1712268084336454700,2.17045458984375,0.75372314453125,0.1656513214111328,-0.8826179504394531
1712268084346453200,2.180453369140625,0.6106376647949219,0.11846780776977539,-0.872811496257782
1712268084356452000,2.1904521484375,0.45774078369140625,0.08163928985595703,-0.7850933074951172
1712268084366451000,2.200450927734375,0.3960533142089844,0.040596961975097656,-0.7021669745445251
1712268084376449500,2.210449462890625,0.27932071685791016,0.051218509674072266,-0.5572518110275269
1712268084386448400,2.220448486328125,0.07579421997070312,0.05215740203857422,-0.47035837173461914
1712268084396447000,2.230447021484375,0.059749603271484375,-0.1012716293334961,-0.5702477693557739
1712268084406445800,2.24044580078125,-0.0066127777099609375,-0.2929511070251465,-0.6889690160751343
1712268084416444400,2.2504443359375,-0.08785724639892578,-0.4455227851867676,-0.8534760475158691
1712268084426443300,2.260443359375,-0.01803302764892578,-0.5878796577453613,-0.9844544529914856
1712268084436442000,2.270442138671875,-0.0809621810913086,-0.6246676445007324,-1.0341289043426514
1712268084446440700,2.280440673828125,-0.22362327575683594,-0.757227897644043,-1.0035932064056396
1712268084456439600,2.290439453125,-0.820225715637207,-0.9057955741882324,-0.9157670140266418
1712268084466438400,2.3004384765625,-1.4969234466552734,-1.0854792594909668,-1.196948766708374
1712268084476437000,2.31043701171875,-2.213479995727539,-1.1794300079345703,-0.9493893980979919
1712268084486435800,2.320435791015625,-2.7801618576049805,-1.1840357780456543,-0.8671278953552246
1712268084496434700,2.3304345703125,-2.6725449562072754,-1.314448356628418,-0.9680720567703247
1712268084506433300,2.340433349609375,-2.2271499633789062,-1.3861808776855469,-0.9190845489501953
1712268084516432100,2.35043212890625,-1.9845905303955078,-1.3496174812316895,-0.841118335723877
1712268084526430700,2.3604306640625,-2.4919490814208984,-1.2554850578308105,-0.7238575220108032
1712268084536429600,2.3704296875,-3.436676502227783,-1.4027080535888672,-0.608352780342102
1712268084546428400,2.380428466796875,-4.361028671264648,-1.4702692031860352,-0.4426894187927246
1712268084556427000,2.390427001953125,-4.999870300292969,-1.5917043685913086,-0.3097038269042969
1712268084566425900,2.40042578125,-5.7027201652526855,-1.8231396675109863,0.028249740600585938
1712268084576424700,2.4104248046875,-6.7328386306762695,-2.061034917831421,0.4881870746612549
1712268084586423600,2.420423583984375,-7.590738773345947,-2.3353583812713623,1.055612564086914
1712268084596422400,2.43042236328125,-8.432032585144043,-2.6892893314361572,1.5571842193603516
1712268084606421200,2.440421142578125,-9.186601638793945,-3.3457024097442627,1.2908935546875
1712268084616420400,2.45042041015625,-9.756258010864258,-5.133224010467529,0.0374906063079834
1712268084626419200,2.460419189453125,-9.942346572875977,-6.3101420402526855,-1.8895034790039062
1712268084636418000,2.47041796875,-8.51038646697998,-7.380975246429443,-4.3290557861328125
1712268084646417000,2.4804169921875,-6.664010047912598,-8.734439849853516,-6.083322525024414
1712268084656415700,2.490415771484375,-4.5915327072143555,-9.424600601196289,-6.9166765213012695
1712268084666414600,2.50041455078125,-1.7088298797607422,-9.676691055297852,-6.965187072753906
1712268084676413400,2.510413330078125,1.0474958419799805,-9.048456192016602,-5.827488899230957
1712268084686412300,2.520412353515625,2.8974380493164062,-8.085952758789062,-3.4835293292999268
1712268084696411100,2.5304111328125,3.6599273681640625,-6.843739032745361,-1.2365119457244873
1712268084706410000,2.540409912109375,3.8885345458984375,-5.1224517822265625,1.0520477294921875
1712268084716408800,2.550408935546875,4.842960357666016,-3.6445822715759277,3.5899739265441895
1712268084726407700,2.56040771484375,5.092808723449707,-3.048590660095215,5.167325973510742
1712268084736406500,2.570406494140625,5.53409481048584,-0.3382854461669922,6.13044548034668
1712268084746405400,2.5804052734375,9.004087448120117,-1.844754695892334,3.2503225803375244
1712268084756404200,2.590404296875,11.49644947052002,-3.1089348793029785,-1.4888429641723633
1712268084766403000,2.600403076171875,9.179876327514648,-2.990814447402954,-4.53806209564209
1712268084776402000,2.61040185546875,6.527073860168457,-4.113755226135254,-6.67073917388916
1712268084786400800,2.62040087890625,4.975492477416992,-4.115222930908203,-6.749703407287598
1712268084796399600,2.630399658203125,5.180524826049805,-2.8867859840393066,-5.256582260131836
1712268084806398500,2.6403984375,6.341028213500977,-2.134638786315918,-3.2744815349578857
1712268084816397300,2.650397216796875,6.992554664611816,-0.898378849029541,-1.972865343093872
1712268084826396200,2.660396240234375,6.493554592132568,0.20946359634399414,-1.5271856784820557
1712268084836395000,2.67039501953125,5.341130256652832,-0.283419132232666,-0.37551701068878174
1712268084846393900,2.680393798828125,5.316896915435791,0.9787235260009766,-0.4441608190536499
1712268084856392700,2.690392822265625,4.550953388214111,1.159369945526123,0.24489247798919678
1712268084866391600,2.7003916015625,4.043680191040039,1.1031322479248047,0.39823126792907715
1712268084876390400,2.710390380859375,3.426943302154541,1.392845630645752,0.5156668424606323
1712268084886389200,2.72038916015625,3.130772590637207,1.823939323425293,1.2002520561218262
1712268084896387800,2.730387939453125,2.699573040008545,2.0928053855895996,1.7138264179229736
1712268084906386700,2.74038671875,2.3209919929504395,1.8170585632324219,1.6416865587234497
1712268084916385300,2.75038525390625,2.016960620880127,1.5032496452331543,1.2368372678756714
1712268084926383900,2.7603837890625,1.7608847618103027,1.1874613761901855,0.8263095617294312
1712268084936382700,2.7703828125,1.7217135429382324,0.6535587310791016,0.18244266510009766
1712268084946381600,2.780381591796875,1.7175812721252441,0.2776451110839844,-0.24249446392059326
1712268084956380200,2.790380126953125,1.3939619064331055,0.14229297637939453,-0.3602776527404785
1712268084966379000,2.80037890625,1.574082374572754,-0.13466501235961914,-0.7889405488967896
1712268084976377600,2.810377685546875,1.6623640060424805,-0.5354948043823242,-1.1749783754348755
1712268084986376400,2.82037646484375,0.8781991004943848,-0.7908849716186523,-1.1355841159820557
1712268084996375000,2.830375,0.4776139259338379,-0.48608875274658203,-1.138624906539917
1712268085006374000,2.840373779296875,1.0418133735656738,-0.33576107025146484,-0.8248041868209839
1712268085016372700,2.850372802734375,1.292022705078125,-0.04966020584106445,-0.4329705238342285
1712268085026371300,2.860371337890625,1.5356874465942383,0.2761192321777344,-0.20388662815093994
1712268085036370200,2.8703701171875,2.4521045684814453,0.5879220962524414,-0.20700860023498535
1712268085046368800,2.88036865234375,3.2122535705566406,0.8156485557556152,-0.10374915599822998
1712268085056367600,2.89036767578125,3.4676828384399414,1.0447750091552734,0.1927947998046875
1712268085066366500,2.900366455078125,3.610067367553711,1.1911969184875488,0.5230283737182617
1712268085076365000,2.910364990234375,4.1384782791137695,1.155041217803955,0.7250704765319824
1712268085086364000,2.920364013671875,4.548758506774902,0.8056201934814453,0.3353557586669922
1712268085096362800,2.93036279296875,4.812552452087402,0.2632565498352051,-0.015845298767089844
1712268085106361300,2.940361328125,4.6767578125,-0.06847906112670898,0.05941450595855713
1712268085116360200,2.950360107421875,3.6025142669677734,-0.8687782287597656,0.1833057403564453
1712268085126359000,2.960359130859375,1.975377082824707,-0.5987658500671387,0.032274603843688965
1712268085136357600,2.970357666015625,1.8386240005493164,-0.48551225662231445,-0.45940423011779785
1712268085146356500,2.9803564453125,2.0834789276123047,-0.7353639602661133,-0.39944273233413696
1712268085156355000,2.99035498046875,2.1485185623168945,-0.7400274276733398,-0.3485480546951294
1712268085166354000,3.00035400390625,2.488772392272949,-0.5814430713653564,-0.4759112596511841
1712268085176352500,3.0103525390625,2.9847946166992188,-0.5474386215209961,-0.6053541898727417
1712268085186351400,3.020351318359375,2.9896631240844727,-0.9064757823944092,-0.6632950305938721
1712268085196350200,3.03035009765625,2.7844438552856445,-1.5912950038909912,-0.8969390988349915
1712268085206348800,3.040348876953125,2.0976428985595703,-1.9363917112350464,-1.388938546180725
1712268085216347600,3.05034765625,0.5942716598510742,-2.2665963172912598,-1.9333305358886719
1712268085226346500,3.060346435546875,-0.7239589691162109,-2.397153377532959,-1.7866079807281494
1712268085236345300,3.070345458984375,-2.062074661254883,-2.1585495471954346,-1.4137825965881348
1712268085246344000,3.080343994140625,-2.634395122528076,-1.8729078769683838,-1.2029690742492676
1712268085256342800,3.0903427734375,-2.3145275115966797,-1.6019868850708008,-1.0754588842391968
1712268085266341400,3.10034130859375,-1.599623680114746,-1.3506512641906738,-0.9030529856681824
1712268085276340200,3.11034033203125,-0.9204788208007812,-1.1884686946868896,-0.649753212928772
1712268085286338800,3.1203388671875,-0.7754974365234375,-1.1805649995803833,-0.3629782795906067
1712268085296337700,3.130337646484375,-1.2873640060424805,-1.3219070434570312,-0.2627081274986267
1712268085306336300,3.140336181640625,-2.049262523651123,-1.2918651103973389,-0.1910175085067749
1712268085316335000,3.150335205078125,-2.504096031188965,-1.143688440322876,0.06124114990234375
1712268085326333700,3.160333740234375,-3.418496608734131,-1.1658754348754883,-0.15549826622009277
1712268085336332500,3.17033251953125,-3.4028563499450684,-1.330927848815918,-0.3096010684967041
1712268085346331100,3.1803310546875,-2.841843605041504,-1.3779512643814087,-0.7539790868759155
1712268085356330000,3.190330078125,-2.102128505706787,-1.4265004396438599,-0.9215542674064636
1712268085366328600,3.20032861328125,-1.677886962890625,-1.3169116973876953,-0.8982946872711182
1712268085376327400,3.210327392578125,-1.768970012664795,-1.3387739658355713,-0.8853470683097839
1712268085386326000,3.220325927734375,-1.8056740760803223,-1.3375236988067627,-0.7926183938980103
1712268085396324900,3.230324951171875,-1.782003402709961,-1.1659386157989502,-0.3279174566268921
1712268085406323700,3.24032373046875,-2.235252857208252,-0.974318265914917,0.013045191764831543
1712268085416322300,3.250322265625,-2.839648723602295,-0.7877061367034912,0.12730824947357178
1712268085426321200,3.260321044921875,-3.182840347290039,-0.5903129577636719,0.09047150611877441
1712268085436320000,3.270320068359375,-2.9034900665283203,-0.5207169055938721,-0.04008209705352783
1712268085446318600,3.280318603515625,-2.128866195678711,-0.4746570587158203,-0.07791125774383545
1712268085456317400,3.2903173828125,-1.5064043998718262,-0.3862190246582031,-0.1441861391067505
1712268085466316300,3.30031640625,-1.2288942337036133,-0.3919181823730469,-0.24398326873779297
1712268085476788000,3.3107880859375,-1.0694208145141602,-0.38125085830688477,-0.37430262565612793
1712268085486786600,3.32078662109375,-1.0099339485168457,-0.2729802131652832,-0.5250256061553955
1712268085496785400,3.330785400390625,-0.9430122375488281,-0.2278146743774414,-0.6694795489311218
1712268085506784000,3.340783935546875,-0.6934070587158203,-0.16706609725952148,-0.7575061321258545
1712268085516782800,3.350782958984375,-0.3472938537597656,0.038721561431884766,-0.5772827863693237
1712268085526781700,3.36078173828125,-0.12052249908447266,0.17418384552001953,-0.4144802689552307
1712268085536780300,3.3707802734375,0.1603097915649414,0.2202749252319336,-0.3875538110733032
1712268085546779100,3.380779052734375,0.2812967300415039,0.32987403869628906,-0.32245582342147827
1712268085556777700,3.39077783203125,0.38074302673339844,0.3883962631225586,-0.259438157081604
1712268085566776600,3.400776611328125,0.3807973861694336,0.44047117233276367,-0.24827539920806885
1712268085576775400,3.410775390625,0.24272918701171875,0.4358806610107422,-0.2814027667045593
1712268085586774000,3.42077392578125,0.269927978515625,0.3705620765686035,-0.38564974069595337
1712268085596772900,3.43077294921875,0.4716024398803711,0.3103342056274414,-0.46947503089904785
1712268085606771700,3.440771728515625,0.5920085906982422,0.27635622024536133,-0.4889158010482788
1712268085616770600,3.4507705078125,0.505070686340332,0.1234440803527832,-0.47010356187820435
1712268085626769400,3.460769287109375,0.38309383392333984,0.10889434814453125,-0.27331995964050293
1712268085636768300,3.470768310546875,0.5951595306396484,0.10170555114746094,-0.1424117088317871
1712268085646767400,3.480767333984375,0.7878332138061523,0.15616226196289062,-0.06776106357574463
1712268085656766200,3.49076611328125,0.6527299880981445,0.19636774063110352,-0.14828503131866455
1712268085666765300,3.500765380859375,0.25347232818603516,0.21808815002441406,-0.24693059921264648
1712268085676764200,3.51076416015625,-0.27843666076660156,0.25330543518066406,-0.3757251501083374
1712268085686763300,3.52076318359375,-0.5036263465881348,0.2548861503601074,-0.43967342376708984
1712268085696762400,3.530762451171875,-0.43596506118774414,0.25043725967407227,-0.529884934425354
1712268085706761500,3.540761474609375,-0.30161476135253906,0.21724605560302734,-0.6313794255256653
1712268085716760600,3.550760498046875,-0.25629377365112305,0.14247655868530273,-0.7103675007820129
1712268085726759700,3.560759765625,-0.1665945053100586,0.052553653717041016,-0.8715133666992188
1712268085736758800,3.5707587890625,0.04364013671875,-0.04941511154174805,-1.0189028978347778
1712268085746757600,3.580757568359375,-0.02996349334716797,-0.09663677215576172,-0.9942924380302429
1712268085756756700,3.5907568359375,-0.5527420043945312,-0.05600118637084961,-0.7984150052070618
1712268085766755800,3.600755859375,-1.130359172821045,-0.06543207168579102,-0.5001194477081299
1712268085776755000,3.6107548828125,-1.8577780723571777,-0.1266021728515625,-0.16998422145843506
1712268085786754000,3.620754150390625,-2.760012149810791,-0.2664356231689453,0.153778076171875
1712268085796753200,3.630753173828125,-3.9640355110168457,-0.4003887176513672,0.8101094961166382
1712268085806752300,3.640752197265625,-5.088710784912109,-0.41319751739501953,1.513109564781189
1712268085816751400,3.65075146484375,-6.640103340148926,-0.45221519470214844,2.18597412109375
1712268085826750500,3.66075048828125,-8.766670227050781,-0.93560791015625,2.6907858848571777
1712268085836749600,3.67074951171875,-11.350723266601562,-1.8418614864349365,2.7709426879882812
1712268085846748700,3.680748779296875,-13.834821701049805,-3.547445774078369,2.547851800918579
1712268085856747800,3.690747802734375,-16.01881217956543,-5.506165981292725,1.850741982460022
1712268085866747000,3.700746826171875,-15.925893783569336,-7.137495994567871,0.9615014791488647
1712268085876746000,3.71074609375,-13.796295166015625,-8.599522590637207,-0.16424274444580078
1712268085886744800,3.720744873046875,-10.757380485534668,-9.961819648742676,-1.5332016944885254
1712268085896744200,3.730744140625,-7.963879585266113,-10.906120300292969,-3.6429882049560547
1712268085906743000,3.740742919921875,-4.720016956329346,-11.573447227478027,-5.503520965576172
1712268085916742100,3.7507421875,-1.4556407928466797,-11.89233112335205,-6.590326309204102
1712268085926741000,3.760740966796875,0.5962667465209961,-11.113954544067383,-6.135065078735352
1712268085936740000,3.770739990234375,2.532146453857422,-10.176777839660645,-5.2130208015441895
1712268085946739000,3.780739013671875,5.165108680725098,-9.145360946655273,-4.567595481872559
1712268085956737800,3.79073779296875,6.471631050109863,-7.503793239593506,-3.1299421787261963
1712268085966736600,3.800736572265625,6.838069915771484,-5.351268768310547,-1.8722765445709229
1712268085976735500,3.810735595703125,7.235485076904297,-3.624906301498413,-1.1083892583847046
1712268085986734300,3.820734375,6.766280174255371,-2.7684998512268066,-0.026935815811157227
1712268085996733000,3.83073291015625,5.958742141723633,-2.408675193786621,0.8208561539649963
1712268086006731800,3.840731689453125,4.845381736755371,-2.066129207611084,0.9028403759002686
1712268086016730400,3.85073046875,3.4546890258789062,-2.2365007400512695,0.054638177156448364
1712268086026729200,3.860729248046875,2.6155614852905273,-2.3386831283569336,-1.4411914348602295
1712268086036727800,3.870727783203125,2.27089786529541,-2.780731678009033,-3.236050605773926
1712268086046726700,3.8807265625,1.6259679794311523,-2.3982982635498047,-3.6742639541625977
1712268086056725200,3.890725341796875,0.9349842071533203,-2.4918646812438965,-3.13541579246521
1712268086066724000,3.90072412109375,2.4541964530944824,-3.820202350616455,-2.1768224239349365
1712268086076723000,3.910722900390625,4.58975887298584,-1.983232021331787,0.6290155649185181
1712268086086721500,3.920721435546875,6.613417148590088,-0.7611398696899414,2.1107616424560547
1712268086096720400,3.930720458984375,8.167366027832031,0.6186761856079102,2.489398956298828
1712268086106719200,3.94071923828125,8.788644790649414,1.3849053382873535,1.832937240600586
1712268086116717800,3.9507177734375,8.235359191894531,1.3630681037902832,0.7987698912620544
1712268086126716700,3.960716552734375,6.4846649169921875,1.000112533569336,0.21813291311264038
1712268086136715300,3.97071533203125,4.760150909423828,0.7181029319763184,-0.16222596168518066
1712268086146714000,3.980714111328125,4.246153831481934,0.7774114608764648,-0.6581676006317139
1712268086156713000,3.990712890625,4.5010199546813965,1.1167492866516113,-0.3686755895614624
1712268086166711600,4.000711669921875,4.525680065155029,1.441239833831787,-0.16020357608795166
1712268086176710400,4.01071044921875,4.453732967376709,1.2710394859313965,-0.3964052200317383
1712268086186709200,4.020709228515625,4.074254989624023,0.8479924201965332,-0.6111312508583069
1712268086196707800,4.030707763671875,3.557109832763672,0.4241776466369629,-0.8961535692214966
1712268086206706700,4.040706787109375,2.9569430351257324,-0.05194377899169922,-1.1161649227142334
1712268086216705300,4.050705322265625,2.5679526329040527,-0.6272482872009277,-1.6848652362823486
1712268086226704100,4.0607041015625,2.593341827392578,-0.9036293029785156,-2.2217071056365967
1712268086236703000,4.070702880859375,2.6271166801452637,-1.1198210716247559,-2.345768690109253
1712268086246701600,4.08070166015625,2.686443328857422,-1.0207176208496094,-2.3165791034698486
1712268086256700400,4.090700439453125,2.759821891784668,-0.9854836463928223,-2.2242109775543213
1712268086266699300,4.10069921875,2.5018153190612793,-0.6569733619689941,-1.8054662942886353
1712268086276697900,4.11069775390625,2.5420312881469727,-0.42630720138549805,-1.4220331907272339
1712268086286696700,4.12069677734375,3.009255886077881,0.09891271591186523,-0.7493687272071838
1712268086296695300,4.1306953125,3.776707172393799,0.7651362419128418,-0.37163954973220825
1712268086306694100,4.140694091796875,5.126916408538818,1.1432304382324219,0.14175647497177124
1712268086316692700,4.150692626953125,5.961761951446533,1.2279887199401855,0.6128582954406738
1712268086326691600,4.160691650390625,6.264529228210449,1.0611906051635742,1.0931370258331299
1712268086336690400,4.1706904296875,5.802243232727051,0.46529388427734375,1.4517637491226196
1712268086346689000,4.18068896484375,4.160060882568359,0.061968326568603516,1.2726401090621948
1712268086356688000,4.19068798828125,3.1514968872070312,-0.03179311752319336,0.48698651790618896
1712268086366686500,4.2006865234375,2.865884780883789,-0.6110868453979492,-0.6024616956710815
1712268086376685300,4.210685302734375,2.7335891723632812,-0.9108757972717285,-1.741457223892212
1712268086386684000,4.220683837890625,2.460211753845215,-1.018266201019287,-2.1765031814575195
1712268086396682800,4.230682861328125,1.4288053512573242,-1.1312031745910645,-1.9909155368804932
1712268086406681300,4.240681396484375,0.7860174179077148,-1.2498984336853027,-1.400885820388794
1712268086416680200,4.25068017578125,0.9668989181518555,-1.0942001342773438,-0.6442056894302368
1712268086426678800,4.2606787109375,1.1741523742675781,-0.8426797389984131,-0.04164120554924011
1712268086436677600,4.270677734375,0.7631902694702148,-0.8735427856445312,0.10152523219585419
1712268086446676200,4.28067626953125,-0.04266357421875,-1.1447474956512451,-0.20888176560401917
1712268086456675000,4.290675048828125,-0.8828659057617188,-1.2374204397201538,-0.3520842492580414
1712268086466674000,4.300673828125,-1.2869043350219727,-1.4121397733688354,-0.528548002243042
1712268086476672500,4.310672607421875,-1.3382072448730469,-1.6319571733474731,-0.7976746559143066
1712268086486671400,4.32067138671875,-1.0500621795654297,-1.6577306985855103,-0.9908998012542725
1712268086496670200,4.330670166015625,-0.934600830078125,-1.5227364301681519,-0.8407911658287048
1712268086506668800,4.340668701171875,-1.1896295547485352,-1.3571990728378296,-0.23018816113471985
1712268086516667600,4.350667724609375,-1.5082197189331055,-1.1856722831726074,0.4433667063713074
1712268086526666200,4.360666259765625,-1.4889230728149414,-0.9513124227523804,0.8881809711456299
1712268086536665000,4.3706650390625,-1.6295995712280273,-1.0285295248031616,0.8153348565101624
1712268086546664000,4.380663818359375,-1.7367491722106934,-1.399009346961975,0.4696301221847534
1712268086556662500,4.39066259765625,-1.5659914016723633,-1.6149768829345703,0.21417206525802612
1712268086566661400,4.400661376953125,-1.38897705078125,-1.6212642192840576,0.1643316149711609
1712268086576660000,4.410659912109375,-1.1944780349731445,-1.807813048362732,-0.4773922264575958
1712268086586658800,4.420658935546875,-0.802983283996582,-1.8711864948272705,-1.084795355796814
1712268086596657700,4.43065771484375,-0.5135202407836914,-1.6399905681610107,-1.5777862071990967
1712268086606656300,4.44065625,-0.2798042297363281,-1.494210958480835,-1.3415471315383911
1712268086616655000,4.450655029296875,-0.5408821105957031,-1.35589599609375,-1.1558570861816406
1712268086626654000,4.460654052734375,-0.8543157577514648,-1.388598918914795,-0.9696511030197144
1712268086636652500,4.470652587890625,-0.9813394546508789,-1.391005039215088,-0.8957606554031372
1712268086646651400,4.4806513671875,-1.201171875,-1.3632807731628418,-0.7865177392959595
1712268086656650200,4.490650146484375,-1.9439697265625,-1.2365915775299072,-0.41399818658828735
1712268086666648800,4.50064892578125,-2.9506969451904297,-1.0603642463684082,-0.1222071647644043
1712268086676647700,4.510647705078125,-3.3028855323791504,-0.9258909225463867,0.123740553855896
1712268086686646300,4.520646240234375,-3.157905101776123,-0.7830498218536377,0.1768507957458496
1712268086696645000,4.53064501953125,-2.6902403831481934,-0.6177718639373779,0.22331547737121582
1712268086706644000,4.54064404296875,-2.5004091262817383,-0.41260862350463867,0.12330663204193115
1712268086716642800,4.550642822265625,-1.9752535820007324,-0.33121538162231445,0.14458656311035156
1712268086726641700,4.5606416015625,-1.1950750350952148,-0.3690309524536133,0.03509950637817383
1712268086736640800,4.570640869140625,-0.4642152786254883,-0.42315101623535156,-0.42175811529159546
1712268086746639600,4.5806396484375,-0.17957592010498047,-0.49556589126586914,-0.9597762823104858
1712268086756638700,4.590638671875,-0.25216007232666016,-0.6722073554992676,-1.591009497642517
1712268086766637600,4.600637451171875,-0.48800134658813477,-0.6996974945068359,-1.8805872201919556
1712268086776636700,4.61063671875,-0.8332700729370117,-0.5571775436401367,-1.7928670644760132
1712268086786635800,4.6206357421875,-0.9293379783630371,-0.3530898094177246,-1.4577769041061401
1712268086796634600,4.630634521484375,-0.7919707298278809,-0.08731746673583984,-1.0912824869155884
1712268086806633700,4.6406337890625,-0.5957527160644531,0.10407257080078125,-0.7378196716308594
1712268086816632800,4.6506328125,-0.6915302276611328,0.23837614059448242,-0.37721073627471924
1712268086826632000,4.6606318359375,-0.90020751953125,0.2717933654785156,-0.2532390356063843
1712268086836631000,4.670631103515625,-0.9995980262756348,0.24519729614257812,-0.17262637615203857
1712268086846630000,4.6806298828125,-1.2557406425476074,0.21198320388793945,-0.1635732650756836
1712268086856629000,4.69062890625,-1.4956507682800293,0.17479467391967773,-0.1803957223892212
1712268086866628000,4.700628173828125,-1.0854840278625488,0.2347865104675293,-0.25401830673217773
1712268086876627200,4.710627197265625,-0.5508356094360352,0.2669544219970703,-0.3318348526954651
1712268086886626300,4.720626220703125,-0.23675203323364258,0.24918365478515625,-0.37187767028808594
1712268086896625200,4.730625244140625,-0.0558929443359375,0.23830556869506836,-0.31728947162628174
1712268086906624300,4.740624267578125,0.06820392608642578,0.30328893661499023,-0.24728524684906006
1712268086916623400,4.750623291015625,0.19101715087890625,0.34294652938842773,-0.12599384784698486
1712268086926622500,4.76062255859375,0.04918956756591797,0.32791614532470703,-0.010818004608154297
1712268086936621600,4.77062158203125,-0.10884475708007812,0.2536945343017578,0.047969937324523926
1712268086946620400,4.780620361328125,-0.11092662811279297,0.2504558563232422,-0.052233338356018066
1712268086956619500,4.79061962890625,-0.16930580139160156,0.18366575241088867,-0.23820149898529053
1712268086966618600,4.80061865234375,-0.25971555709838867,0.13431453704833984,-0.3449810743331909
1712268086976617700,4.81061767578125,-0.2943897247314453,0.10113716125488281,-0.2929675579071045
1712268086986616800,4.820616943359375,-0.2647876739501953,0.009294986724853516,-0.3701505661010742
1712268086996615700,4.83061572265625,-0.24892425537109375,-0.06573629379272461,-0.4870351552963257
1712268087006614800,4.84061474609375,-0.38199520111083984,-0.22146272659301758,-0.5749319791793823
1712268087016614000,4.85061376953125,-1.0360651016235352,-0.42106151580810547,-0.5716657638549805
1712268087026612700,4.86061279296875,-1.6399140357971191,-0.5338606834411621,-0.4956918954849243
1712268087036611600,4.870611572265625,-2.32546329498291,-0.7836785316467285,-0.37903058528900146
1712268087046610400,4.8806103515625,-3.324068069458008,-0.9902772903442383,-0.08789718151092529
1712268087056609000,4.890609130859375,-4.7089738845825195,-1.0793161392211914,0.2594248056411743
1712268087066607900,4.90060791015625,-6.153022289276123,-1.3736960887908936,0.46412503719329834
1712268087076606700,4.910606689453125,-7.770365238189697,-1.818418264389038,0.82503342628479
1712268087086605300,4.920605224609375,-9.58481216430664,-2.352633476257324,1.2977229356765747
1712268087096604200,4.930604248046875,-11.64864730834961,-3.116438388824463,1.6584328413009644
1712268087106602800,4.940602783203125,-13.056970596313477,-4.178805351257324,1.3914464712142944
1712268087116601600,4.9506015625,-13.271522521972656,-5.82719612121582,0.3708087205886841
1712268087126600200,4.96060009765625,-12.493721008300781,-7.754519462585449,-1.3517054319381714
1712268087136599000,4.97059912109375,-9.946157455444336,-8.857094764709473,-3.0621707439422607
1712268087146597600,4.98059765625,-7.0942182540893555,-9.420357704162598,-4.422351360321045
1712268087156596500,4.990596435546875,-3.738497257232666,-9.707825660705566,-5.3214006423950195
1712268087166595000,5.000594970703125,-0.3427085876464844,-9.23706340789795,-4.850313186645508
1712268087176594000,5.010593994140625,2.2964048385620117,-8.067011833190918,-4.234177589416504
1712268087186592800,5.0205927734375,4.726061820983887,-6.045278072357178,-2.9088611602783203
1712268087196591400,5.03059130859375,6.600969314575195,-5.802822589874268,-1.8235447406768799
1712268087206590200,5.040590087890625,6.266474723815918,-4.856879234313965,-1.4181926250457764
1712268087216589000,5.050589111328125,4.689136505126953,-4.068117141723633,-2.0783028602600098
1712268087226587600,5.060587646484375,4.88718318939209,-4.25846529006958,-2.892477035522461
1712268087236586500,5.07058642578125,4.424896240234375,-4.265900611877441,-3.2948122024536133
1712268087246585000,5.080585205078125,4.595047950744629,-3.1506242752075195,-2.0867207050323486
1712268087256584000,5.090583984375,4.587251663208008,-3.1649324893951416,-1.9397109746932983
1712268087266582800,5.100582763671875,4.252256393432617,-2.2564854621887207,-0.7775231599807739
1712268087276581400,5.110581298828125,2.214383125305176,-1.6188688278198242,-1.0090023279190063
1712268087286580200,5.120580322265625,-1.5141892433166504,-1.2470755577087402,-0.3798459768295288
1712268087296579000,5.1305791015625,0.9933366775512695,-1.3356423377990723,1.5409066677093506
1712268087306577700,5.14057763671875,3.306793212890625,-0.7379136085510254,2.380697250366211
1712268087316576500,5.150576416015625,5.247481346130371,0.4504580497741699,2.660034656524658
1712268087326575000,5.1605751953125,5.709981918334961,1.17045259475708,3.4038186073303223
1712268087336574000,5.170573974609375,5.0406951904296875,1.3532805442810059,3.7444565296173096
1712268087346572800,5.18057275390625,3.2142281532287598,1.166550636291504,2.969888210296631
1712268087356571400,5.1905712890625,1.9643950462341309,0.9738116264343262,2.3712387084960938
1712268087366570200,5.2005703125,1.6438727378845215,0.9552602767944336,1.6161807775497437
1712268087376569000,5.210569091796875,2.8465919494628906,0.4980449676513672,0.7429582476615906
1712268087386567700,5.220567626953125,4.671327590942383,0.04112958908081055,-0.6943261027336121
1712268087396566500,5.23056640625,5.397128582000732,-0.1952223777770996,-1.6163736581802368
1712268087406565000,5.240565185546875,4.734032154083252,-0.757988452911377,-1.9041050672531128
1712268087416564000,5.25056396484375,3.7670726776123047,-0.7982783317565918,-1.8108391761779785
1712268087426562800,5.260562744140625,3.9001545906066895,-0.7235240936279297,-1.7043184041976929
1712268087436561400,5.2705615234375,4.672287464141846,-0.8930444717407227,-1.9898173809051514
1712268087446560300,5.280560302734375,5.936883926391602,-0.9352736473083496,-2.003103494644165
1712268087456559000,5.29055908203125,6.277451992034912,-0.9988584518432617,-1.8834917545318604
1712268087466557700,5.3005576171875,5.8419976234436035,-1.109684944152832,-1.8595061302185059
1712268087476556500,5.310556640625,5.6118011474609375,-1.1434721946716309,-1.9927719831466675
1712268087486555100,5.32055517578125,5.64197301864624,-1.2965941429138184,-2.4603805541992188
1712268087496554000,5.330553955078125,5.456205368041992,-1.1698346138000488,-2.4668869972229004
1712268087506552600,5.340552490234375,5.007508754730225,-0.918907642364502,-1.9071557521820068
1712268087516551400,5.350551513671875,4.953543186187744,-0.4421510696411133,-1.2023711204528809
1712268087526550000,5.360550048828125,5.301781177520752,-0.017372608184814453,-0.725473940372467
1712268087536548600,5.370548583984375,5.327971458435059,0.41408729553222656,0.1486656665802002
1712268087546547500,5.38054736328125,4.984300136566162,0.8521065711975098,0.8080093264579773
1712268087556546000,5.390546142578125,4.845206260681152,1.0854268074035645,1.2414729595184326
1712268087566545000,5.400544921875,5.083539962768555,1.10197114944458,1.5375126600265503
1712268087576543700,5.410543701171875,5.219912528991699,1.0771856307983398,1.545509934425354
1712268087586542600,5.42054248046875,5.582347869873047,0.9406619071960449,1.3962066173553467
1712268087596541200,5.430541259765625,6.287970542907715,0.551511287689209,1.0677653551101685
1712268087606540000,5.4405400390625,6.528937339782715,-0.34384775161743164,0.6707741022109985
1712268087616539000,5.450538818359375,6.233226776123047,-0.6969914436340332,0.2657478451728821
1712268087626537500,5.460537353515625,6.472021102905273,-1.3389301300048828,-0.51101154088974
1712268087636536300,5.470536376953125,6.455597877502441,-1.8284878730773926,-0.5757598876953125
1712268087646535000,5.480534912109375,6.00274658203125,-1.7703018188476562,-0.3131796717643738
1712268087656533800,5.49053369140625,5.400853157043457,-1.8772649765014648,-0.14123481512069702
1712268087666532400,5.500532470703125,4.755276679992676,-2.5982820987701416,-0.037077609449625015
1712268087676531200,5.51053125,3.763315200805664,-3.1933751106262207,-0.1403133124113083
1712268087686530000,5.520530029296875,2.0780410766601562,-3.5005273818969727,-0.5173553228378296
1712268087696528600,5.530528564453125,0.6090002059936523,-3.649803638458252,-0.9240012764930725
1712268087706527500,5.540527587890625,-1.3174467086791992,-3.506997585296631,-1.2415564060211182
1712268087716526300,5.5505263671875,-2.903681755065918,-3.3595898151397705,-1.4251511096954346
1712268087726525200,5.560525146484375,-3.3063645362854004,-3.3238186836242676,-1.318385362625122
1712268087736523800,5.570523681640625,-3.1270833015441895,-3.327657461166382,-1.2365230321884155
1712268087746522600,5.580522705078125,-2.895076274871826,-2.8480937480926514,-0.9195467233657837
1712268087756521200,5.590521240234375,-3.263411521911621,-2.69643235206604,-0.5895066261291504
1712268087766520000,5.60052001953125,-3.7888779640197754,-2.8634493350982666,-0.6890579462051392
1712268087776518700,5.6105185546875,-4.738714218139648,-2.619147777557373,-1.0530779361724854
1712268087786517500,5.620517578125,-5.2150726318359375,-2.374972343444824,-0.7908926010131836
1712268087796516400,5.630516357421875,-5.443698406219482,-2.139644145965576,-0.29902714490890503
1712268087806515200,5.64051513671875,-5.1929802894592285,-2.0595085620880127,0.266895055770874
1712268087816514000,5.65051416015625,-4.521048545837402,-2.048060417175293,0.26096975803375244
1712268087826513000,5.660512939453125,-4.023004531860352,-2.074007034301758,-0.489078164100647
1712268087836511700,5.67051171875,-3.7020773887634277,-2.3132829666137695,-1.1697076559066772
1712268087846510600,5.680510498046875,-3.903740882873535,-2.317450523376465,-1.4764658212661743
1712268087856509400,5.690509521484375,-4.204679012298584,-2.2835395336151123,-1.4830163717269897
1712268087866508300,5.70050830078125,-4.176243782043457,-2.0526890754699707,-1.22963285446167
1712268087876507100,5.710507080078125,-3.9112491607666016,-1.5854811668395996,-0.6208834648132324
1712268087886506000,5.720506103515625,-3.416480541229248,-1.2578413486480713,-0.1285393238067627
1712268087896504800,5.7305048828125,-2.9651856422424316,-1.0549416542053223,0.2800290584564209
1712268087906503700,5.740503662109375,-2.651355266571045,-0.8610572814941406,0.5122005939483643
1712268087916502500,5.75050244140625,-2.2513322830200195,-0.7252025604248047,0.5133850574493408
1712268087926501400,5.76050146484375,-1.6673121452331543,-0.5614287853240967,0.46356678009033203
1712268087936500200,5.770500244140625,-1.0575785636901855,-0.48238563537597656,0.23119962215423584
1712268087946499000,5.7804990234375,-0.7665233612060547,-0.3662757873535156,-0.04527848958969116
1712268087956498200,5.790498291015625,-0.6437482833862305,-0.2998967170715332,-0.3189929127693176
1712268087966497000,5.8004970703125,-0.3601417541503906,-0.2911043167114258,-0.5606322288513184
1712268087976495900,5.810495849609375,0.029335975646972656,-0.13268589973449707,-0.7102265954017639
1712268087986494700,5.82049462890625,0.1692667007446289,0.08170509338378906,-0.6956338286399841
1712268087996493600,5.83049365234375,0.1404275894165039,0.2280101776123047,-0.4359928369522095
1712268088006492400,5.840492431640625,0.2214813232421875,0.354555606842041,-0.1824648380279541
1712268088016491300,5.8504912109375,0.2931537628173828,0.5274443626403809,-0.03520292043685913
1712268088026490000,5.860489990234375,0.34103870391845703,0.6619596481323242,0.03127002716064453
1712268088036489000,5.870489013671875,0.40112781524658203,0.7448110580444336,-0.0514257550239563
1712268088046487800,5.88048779296875,0.19123363494873047,0.6830286979675293,-0.2322503924369812
1712268088056486700,5.890486572265625,0.09373188018798828,0.5250892639160156,-0.5512306094169617
1712268088066485500,5.900485595703125,0.08612060546875,0.39861106872558594,-0.7553731799125671
1712268088076484400,5.910484375,0.056799888610839844,0.23473834991455078,-0.9949554204940796
1712268088086483200,5.920483154296875,-0.1087942123413086,0.13225603103637695,-1.075955867767334
1712268088096482000,5.93048193359375,-0.3619232177734375,0.10649967193603516,-0.9880419373512268
1712268088106481000,5.94048095703125,-0.48021602630615234,0.19176626205444336,-0.7626866102218628
1712268088116479500,5.9504794921875,-0.3094024658203125,0.23238563537597656,-0.5625888109207153
1712268088126478300,5.960478271484375,-0.21533679962158203,0.32187652587890625,-0.29265546798706055
1712268088136477000,5.970476806640625,-0.29128265380859375,0.4196052551269531,-0.13305461406707764
1712268088146475800,5.980475830078125,-0.49826908111572266,0.4077019691467285,-0.06789100170135498
1712268088156474400,5.990474365234375,-0.4703359603881836,0.38265132904052734,-0.12851166725158691
1712268088166473200,6.00047314453125,-0.02779674530029297,0.38572120666503906,-0.22472882270812988
1712268088176471800,6.010471923828125,0.117095947265625,0.2870769500732422,-0.35364532470703125
1712268088186470700,6.020470703125,0.1913595199584961,0.17772722244262695,-0.588440477848053
1712268088196469200,6.03046923828125,0.5180549621582031,0.17937755584716797,-0.8045117259025574
1712268088206468000,6.040468017578125,1.3627309799194336,0.05220842361450195,-1.1386027336120605
1712268088216467000,6.050467041015625,1.6805124282836914,-0.2251415252685547,-1.5560717582702637
1712268088226465500,6.060465576171875,-4.649510860443115,-3.5290462970733643,-4.043854236602783
1712268088236464400,6.07046435546875,-3.2886366844177246,-1.0050427913665771,-2.3196046352386475
1712268088246463000,6.080462890625,-1.780390739440918,1.264829158782959,-1.255605936050415
1712268088256461800,6.0904619140625,1.433013916015625,1.0370335578918457,-0.5037510395050049
1712268088266460700,6.100460693359375,2.0934343338012695,0.1232442855834961,0.08502161502838135
1712268088276459300,6.110459228515625,0.6416969299316406,-0.3483264446258545,0.3306294083595276
1712268088286458000,6.1204580078125,-1.3593153953552246,-0.20393943786621094,0.2498340606689453
1712268088296456700,6.130456787109375,-2.545391082763672,0.1841115951538086,-0.03571295738220215
1712268088306455600,6.14045556640625,-2.3934879302978516,0.563530445098877,-0.15613126754760742
1712268088316454400,6.150454345703125,-1.3958344459533691,0.6611483097076416,-0.05557483434677124
1712268088326453200,6.160453369140625,-0.36664581298828125,0.5596189498901367,0.32429027557373047
1712268088336451800,6.170451904296875,0.23511886596679688,0.4324793815612793,0.6462701559066772
1712268088346450700,6.18045068359375,0.1461029052734375,0.2007431983947754,0.4047917127609253
1712268088356449300,6.19044921875,-0.009039878845214844,-0.1411583423614502,0.12939453125
1712268088366448000,6.2004482421875,0.5029048919677734,-0.29871392250061035,0.030424416065216064
1712268088376447000,6.210447021484375,1.3714590072631836,-0.1867537498474121,0.016354680061340332
1712268088386445600,6.220445556640625,1.8939399719238281,-0.07258319854736328,0.11069995164871216
1712268088396444400,6.2304443359375,1.498845100402832,-0.07233595848083496,0.1789003610610962
1712268088406443000,6.240443115234375,0.4508352279663086,-0.17879986763000488,0.055776774883270264
1712268088416441900,6.25044189453125,-0.4228630065917969,-0.11440515518188477,-0.22505927085876465
1712268088426440700,6.260440673828125,-0.687840461730957,0.16855764389038086,-0.5550154447555542
1712268088436439300,6.270439208984375,-0.1957693099975586,0.34083032608032227,-0.48273903131484985
1712268088446438100,6.280438232421875,0.2703256607055664,0.3842742443084717,-0.26149946451187134
1712268088456437000,6.29043701171875,0.3390626907348633,0.31175708770751953,-0.013769328594207764
1712268088466435600,6.300435546875,0.37917041778564453,0.22191762924194336,0.05545562505722046
1712268088476434400,6.310434326171875,0.37446117401123047,0.12541794776916504,0.0040108561515808105
1712268088486433300,6.320433349609375,0.21779537200927734,0.12360525131225586,-0.05006510019302368
1712268088496431900,6.330431884765625,-0.10241413116455078,0.12418389320373535,-0.10701459646224976
1712268088506430700,6.3404306640625,-0.3734302520751953,0.13043451309204102,-0.16626089811325073
1712268088516429300,6.35042919921875,-0.3496723175048828,0.21265721321105957,-0.19899851083755493
1712268088526428000,6.360427978515625,-0.19916152954101562,0.23868727684020996,-0.2533637583255768
1712268088536426800,6.3704267578125,-0.12724876403808594,0.17815303802490234,-0.34018808603286743
1712268088546425600,6.380425537109375,-0.18144512176513672,0.16601967811584473,-0.3435675799846649
1712268088556424200,6.390424072265625,-0.09828567504882812,0.18261170387268066,-0.3657832145690918
1712268088566423000,6.400423095703125,0.14142608642578125,0.19713902473449707,-0.3019676208496094
1712268088576421600,6.410421630859375,0.35989856719970703,0.2636995315551758,-0.2734171450138092
1712268088586420500,6.42042041015625,0.40862083435058594,0.26451587677001953,-0.2286859154701233
1712268088596419000,6.430419189453125,0.26808834075927734,0.23610329627990723,-0.26517969369888306
1712268088606418000,6.44041796875,0.23941612243652344,0.21618366241455078,-0.3602692484855652
1712268088616416500,6.45041650390625,0.23667240142822266,0.21430277824401855,-0.44399726390838623
1712268088626415400,6.460415283203125,0.21519947052001953,0.18502473831176758,-0.5147610902786255
1712268088636414200,6.470414306640625,0.1301441192626953,0.13834142684936523,-0.5648443102836609
1712268088646412800,6.480412841796875,-0.016058921813964844,0.1627802848815918,-0.6096119284629822
1712268088656411600,6.49041162109375,0.09741687774658203,0.24651122093200684,-0.5304766297340393
1712268088666410200,6.50041015625,0.5761756896972656,0.3675713539123535,-0.12708929181098938
1712268088676409000,6.5104091796875,0.43462085723876953,0.31244754791259766,-0.08013519644737244
1712268088686408000,6.520407958984375,-0.11692428588867188,0.2002725601196289,-0.26541846990585327
1712268088696406500,6.530406494140625,-0.40454673767089844,0.11397647857666016,-0.5623093247413635
1712268088706405400,6.5404052734375,-0.4670381546020508,0.05668210983276367,-0.6914492249488831
1712268088716404200,6.550404296875,-0.5055580139160156,0.0698084831237793,-0.7540041208267212
1712268088726402800,6.56040283203125,-0.31233978271484375,0.11166024208068848,-0.7113891839981079
1712268088736401700,6.570401611328125,0.0812692642211914,0.1781456470489502,-0.40515267848968506
1712268088746400300,6.580400146484375,0.10817146301269531,0.26564502716064453,-0.23725563287734985
1712268088756399000,6.590399169921875,-0.3326530456542969,0.21813249588012695,-0.22460854053497314
1712268088766398000,6.60039794921875,-0.3862886428833008,0.2251131534576416,-0.07327520847320557
1712268088776396500,6.610396484375,-0.1785449981689453,0.22048163414001465,-0.016169309616088867
1712268088786395400,6.6203955078125,-0.07444095611572266,0.14166665077209473,-0.20381474494934082
1712268088796394200,6.630394287109375,0.0026712417602539062,0.02920246124267578,-0.4029816687107086
1712268088806392800,6.640392822265625,0.17049503326416016,-0.08406686782836914,-0.6456580758094788
1712268088816391700,6.6503916015625,0.249237060546875,-0.1449117660522461,-0.8245996832847595
1712268088826390500,6.660390625,0.2724761962890625,-0.19690942764282227,-0.910808801651001
1712268088836389000,6.67038916015625,0.28832435607910156,-0.1140131950378418,-0.8328640460968018
1712268088846388000,6.680387939453125,0.2179107666015625,-0.021241188049316406,-0.6625401377677917
1712268088856386800,6.69038671875,0.1878948211669922,0.14421653747558594,-0.4598039388656616
1712268088866385700,6.7003857421875,0.23354816436767578,0.22411632537841797,-0.3284827470779419
1712268088876384800,6.710384765625,0.2202777862548828,0.188859224319458,-0.3141341805458069
1712268088886383600,6.720383544921875,0.12837791442871094,0.11628913879394531,-0.3386399745941162
1712268088896382700,6.7303828125,0.09885597229003906,0.062149763107299805,-0.41307249665260315
1712268088906381600,6.740381591796875,0.05020332336425781,0.03436398506164551,-0.5130501985549927
1712268088916380700,6.750380615234375,-0.0030059814453125,-0.0464935302734375,-0.6255975365638733
1712268088926379800,6.7603798828125,0.1047067642211914,-0.07321858406066895,-0.6996596455574036
1712268088936379000,6.77037890625,0.29438304901123047,-0.07914876937866211,-0.6765432953834534
1712268088946377700,6.780377685546875,0.2668333053588867,-0.07196831703186035,-0.586192786693573
1712268088956376800,6.790376953125,0.02658843994140625,-0.03760671615600586,-0.4883490800857544
1712268088966376000,6.8003759765625,-0.2164621353149414,0.04970884323120117,-0.3440455496311188
1712268088976375000,6.810375,-0.429595947265625,0.19249796867370605,-0.1654125452041626
1712268088986374100,6.8203740234375,-0.46509742736816406,0.3068385124206543,-0.08671402931213379
1712268088996373000,6.830373046875,-0.4619321823120117,0.32872605323791504,-0.1096985936164856
1712268089006372000,6.8403720703125,-0.3524284362792969,0.30204010009765625,-0.11894822120666504
1712268089016371200,6.85037109375,-0.2149829864501953,0.2826576232910156,-0.08977675437927246
1712268089026370300,6.860370361328125,-0.08745574951171875,0.27662038803100586,-0.09752011299133301
1712268089036369400,6.870369384765625,-0.04391765594482422,0.2496023178100586,-0.16017496585845947
1712268089046368300,6.8803681640625,-0.06026268005371094,0.1937408447265625,-0.2292616367340088
1712268089056367400,6.890367431640625,-0.021701812744140625,0.14049673080444336,-0.2852359414100647
1712268089066366500,6.900366455078125,0.06726932525634766,0.13482451438903809,-0.24105733633041382
1712268089076365600,6.910365478515625,0.08427810668945312,0.14864778518676758,-0.21330004930496216
1712268089086364700,6.92036474609375,0.0026493072509765625,0.19218802452087402,-0.1835259199142456
1712268089096363800,6.93036376953125,-0.04379081726074219,0.2779979705810547,-0.15805667638778687
1712268089106362600,6.940362548828125,0.04317283630371094,0.3129005432128906,-0.1262107491493225
1712268089116361700,6.95036181640625,0.08905887603759766,0.28188514709472656,-0.16101711988449097
1712268089126360800,6.96036083984375,0.048644065856933594,0.25347161293029785,-0.18322080373764038
1712268089136360000,6.97035986328125,0.015522003173828125,0.23641204833984375,-0.2306482195854187
1712268089146358800,6.98035888671875,0.15279197692871094,0.24229216575622559,-0.25517675280570984
1712268089156358000,6.99035791015625,0.21646499633789062,0.2298750877380371,-0.37493500113487244
1712268089166356700,7.000356689453125,0.14908599853515625,0.15081262588500977,-0.42065948247909546
1712268089176355600,7.01035546875,-0.0013608932495117188,0.12920498847961426,-0.3848511278629303
1712268089186354400,7.0203544921875,-0.14654827117919922,0.14668655395507812,-0.37738165259361267
1712268089196353300,7.030353271484375,-0.1672344207763672,0.18312287330627441,-0.3786148428916931
1712268089206352000,7.040351806640625,-0.03499126434326172,0.2086784839630127,-0.38977646827697754
1712268089216350700,7.050350830078125,0.14089107513427734,0.19642066955566406,-0.4342866539955139
1712268089226349600,7.060349609375,0.15805339813232422,0.17243409156799316,-0.4614359438419342
1712268089236348200,7.07034814453125,0.11248016357421875,0.09031128883361816,-0.4534391760826111
1712268089246346800,7.0803466796875,-0.023690223693847656,0.029860973358154297,-0.4098818898200989
1712268089256345600,7.090345703125,-0.11623096466064453,0.01575016975402832,-0.3572559356689453
1712268089266344400,7.100344482421875,-0.10997867584228516,0.02164292335510254,-0.2947425842285156
1712268089276343000,7.110343017578125,-0.055123329162597656,0.014241933822631836,-0.22260209918022156
1712268089286341600,7.120341552734375,0.007747650146484375,0.02918696403503418,-0.15322008728981018
1712268089296340500,7.130340576171875,-0.035979270935058594,0.07255792617797852,-0.07866543531417847
1712268089306339000,7.140339111328125,-0.16806507110595703,0.09602642059326172,-0.0682021975517273
1712268089316338000,7.150337890625,-0.3698291778564453,0.05986475944519043,-0.0738368034362793
1712268089326336800,7.160336669921875,-0.4912538528442383,0.08871579170227051,-0.08847463130950928
1712268089336335400,7.17033544921875,-0.4535531997680664,0.12612247467041016,-0.13540321588516235
1712268089346334200,7.180334228515625,-0.3118152618408203,0.11001157760620117,-0.2081875205039978
1712268089356332800,7.190332763671875,-0.24039936065673828,0.05354738235473633,-0.23311424255371094
1712268089366331600,7.20033154296875,-0.18388843536376953,0.04656720161437988,-0.2194128930568695
1712268089376330500,7.21033056640625,-0.2066812515258789,0.0331575870513916,-0.20254456996917725
1712268089386329000,7.2203291015625,-0.3065528869628906,0.0614933967590332,-0.2290971577167511
1712268089396328000,7.230327880859375,-0.37127208709716797,0.06306338310241699,-0.31338825821876526
1712268089406326800,7.240326904296875,-0.37460803985595703,0.04319024085998535,-0.39647042751312256
1712268089416325400,7.250325439453125,-0.3593568801879883,0.056427955627441406,-0.3631281852722168
1712268089426324200,7.26032421875,-0.20075416564941406,0.10930323600769043,-0.2644476592540741
1712268089436322800,7.27032275390625,0.000820159912109375,0.12476134300231934,-0.24712038040161133
1712268089446321700,7.28032177734375,0.15210628509521484,0.09508442878723145,-0.2383919358253479
1712268089456320500,7.290320556640625,0.2101917266845703,0.01229405403137207,-0.29698288440704346
1712268089466319000,7.300319091796875,0.2231893539428711,-0.057381391525268555,-0.3171190619468689
1712268089476318000,7.31031787109375,0.29183483123779297,-0.04741096496582031,-0.35669252276420593
1712268089486316800,7.32031689453125,0.30338191986083984,0.011713027954101562,-0.3818860352039337
1712268089496315400,7.3303154296875,0.3532886505126953,0.048796892166137695,-0.4099699854850769
1712268089506314200,7.340314208984375,0.25960445404052734,0.05422568321228027,-0.36676275730133057
1712268089516313000,7.35031298828125,0.07038116455078125,0.04177522659301758,-0.40035033226013184
1712268089526311700,7.360311767578125,-0.12345123291015625,0.08816409111022949,-0.33797937631607056
1712268089536310500,7.370310546875,-0.14243221282958984,0.08647656440734863,-0.3162171244621277
1712268089546309000,7.38030908203125,-0.015496253967285156,0.0810384750366211,-0.3311852216720581
1712268089556308000,7.390307861328125,0.09219074249267578,0.009238004684448242,-0.3480801582336426
1712268089566306800,7.400306884765625,0.13309383392333984,-0.0440518856048584,-0.40191367268562317
1712268089576305400,7.410305419921875,0.04285621643066406,-0.058379411697387695,-0.40559521317481995
1712268089586304300,7.42030419921875,-0.025543212890625,0.022050142288208008,-0.3945225179195404
1712268089596303000,7.43030322265625,-0.010265350341796875,0.09572482109069824,-0.3475947976112366
1712268089606301700,7.4403017578125,0.06966495513916016,0.11924052238464355,-0.29185864329338074
1712268089616300500,7.450300537109375,0.13773059844970703,0.09220576286315918,-0.28928717970848083
1712268089626299400,7.46029931640625,0.1962718963623047,0.07691693305969238,-0.27913129329681396
1712268089636298000,7.470298095703125,0.08726310729980469,0.09009861946105957,-0.21805480122566223
1712268089646296600,7.480296630859375,-0.045500755310058594,0.09280729293823242,-0.20553675293922424
1712268089656295400,7.49029541015625,-0.03662586212158203,0.13985419273376465,-0.24385420978069305
1712268089666294000,7.5002939453125,0.0012865066528320312,0.16477656364440918,-0.2441503405570984
1712268089676292900,7.51029296875,0.013375282287597656,0.1764826774597168,-0.18508324027061462
1712268089686291500,7.52029150390625,0.00698089599609375,0.20550823211669922,-0.0614018440246582
1712268089696290300,7.530290283203125,-0.017973899841308594,0.23052525520324707,-0.018887728452682495
1712268089706289000,7.540288818359375,-0.11213493347167969,0.1925055980682373,-0.11976712942123413
1712268089716287700,7.550287841796875,-0.09187126159667969,0.17003297805786133,-0.15541312098503113
1712268089726286600,7.56028662109375,-0.07237625122070312,0.11391353607177734,-0.24928288161754608
1712268089736285200,7.57028515625,-0.05124378204345703,0.03837180137634277,-0.3168870806694031
1712268089746284000,7.580283935546875,-0.07352066040039062,0.0043642520904541016,-0.3377705216407776
1712268089756282600,7.59028271484375,-0.0743408203125,0.030434608459472656,-0.3245953917503357
1712268089766281500,7.600281494140625,-0.06357669830322266,0.03174257278442383,-0.27093505859375
1712268089776280000,7.610280029296875,-0.06035137176513672,0.0061168670654296875,-0.23159056901931763
1712268089786279000,7.62027880859375,-0.061954498291015625,0.002954244613647461,-0.18430598080158234
1712268089796277800,7.63027783203125,-0.05153656005859375,0.028991222381591797,-0.1262391358613968
1712268089806276400,7.6402763671875,0.06901359558105469,0.017296791076660156,-0.15315715968608856
1712268089816275200,7.650275146484375,0.11975288391113281,-0.004834175109863281,-0.17957046627998352
1712268089826274000,7.660274169921875,-0.03334617614746094,-0.018773794174194336,-0.19306816160678864
1712268089836272600,7.670272705078125,-0.09795570373535156,0.020196199417114258,-0.18131855130195618
1712268089846271500,7.680271484375,0.005030632019042969,0.03054356575012207,-0.17222681641578674
1712268089856270300,7.690270263671875,0.045523643493652344,0.0011706352233886719,-0.15953770279884338
1712268089866269000,7.70026904296875,-0.017171859741210938,-0.03694558143615723,-0.16370850801467896
1712268089876267800,7.710267822265625,-0.09170722961425781,-0.044272422790527344,-0.12280957400798798
1712268089886266400,7.720266357421875,-0.036838531494140625,-0.01342153549194336,-0.040912434458732605
1712268089896265200,7.73026513671875,0.07074165344238281,0.022458791732788086,0.0013782382011413574
1712268089906264000,7.74026416015625,0.07773685455322266,0.013167381286621094,0.002694070339202881
1712268089916262700,7.7502626953125,-0.020667076110839844,0.018439292907714844,0.022910863161087036
1712268089926261500,7.760261474609375,-0.12848186492919922,0.04233074188232422,0.007147610187530518
1712268089936260000,7.770260009765625,-0.13558006286621094,0.0705113410949707,0.024746239185333252
1712268089946259000,7.780259033203125,0.02974224090576172,0.08916950225830078,0.09316891431808472
1712268089956257800,7.7902578125,0.21887969970703125,0.09891533851623535,0.04124949872493744
1712268089966256600,7.800256591796875,0.1851673126220703,0.07811355590820312,-0.01285611093044281
1712268089976255700,7.810255859375,0.048625946044921875,0.03753232955932617,-0.07148133218288422
1712268089986254600,7.820254638671875,0.0463714599609375,0.02483987808227539,-0.08021672070026398
1712268089996253400,7.83025341796875,0.15921878814697266,0.05709409713745117,-0.03671395778656006
1712268090006252300,7.840252197265625,0.21712303161621094,0.03401637077331543,-0.011696428060531616
1712268090016251100,7.850251220703125,0.1288585662841797,0.05442214012145996,0.07787060737609863
1712268090026250000,7.86025,0.05507469177246094,0.040946245193481445,0.10998831689357758
1712268090036248800,7.870248779296875,0.05801963806152344,0.01513528823852539,0.1084623634815216
1712268090046247700,7.88024755859375,0.060782432556152344,0.023583412170410156,0.11718130111694336
1712268090056246500,7.89024658203125,0.015619277954101562,-0.001294851303100586,0.026886388659477234
1712268090066245400,7.900245361328125,-0.032070159912109375,0.005280256271362305,-0.0692816972732544
1712268090076244200,7.910244140625,-0.0916910171508789,-0.021870136260986328,-0.06869688630104065
1712268090086243300,7.920243408203125,-0.08412551879882812,-0.051886558532714844,-0.08738426864147186
1712268090096242200,7.9302421875,-0.11479568481445312,-0.06053280830383301,-0.04447436332702637
1712268090106240800,7.94024072265625,-0.21229076385498047,-0.026681184768676758,-0.014824703335762024
1712268090116240000,7.950239990234375,-0.24245834350585938,0.00872492790222168,0.023313134908676147
1712268090126238700,7.96023876953125,-0.2195444107055664,0.07174277305603027,0.05666947364807129
1712268090136237300,7.9702373046875,-0.13398075103759766,0.06897783279418945,0.13630737364292145
1712268090146236200,7.980236083984375,-0.06755828857421875,0.030364513397216797,0.07371655106544495
1712268090156235300,7.9902353515625,-0.0661611557006836,0.03597855567932129,0.038831621408462524
