time,seconds_elapsed,z,y,x
1712257497308331300,0.078331298828125,-0.03602790832519531,0.6154916286468506,-0.14954012632369995
1712257497318331100,0.0883310546875,-0.03178215026855469,0.6019120216369629,-0.14394903182983398
1712257497328331300,0.098331298828125,0.022150039672851562,0.3195493221282959,-0.33810168504714966
1712257497338331100,0.1083310546875,0.15001296997070312,0.34610915184020996,-0.20260119438171387
1712257497348330800,0.118330810546875,0.41309452056884766,0.37437939643859863,-0.09326499700546265
1712257497358329900,0.128329833984375,0.7160539627075195,0.37236809730529785,-0.05532187223434448
1712257497368329200,0.1383291015625,0.8069992065429688,0.2817234992980957,-0.2532390356063843
1712257497378328600,0.14832861328125,0.5296573638916016,0.1992778778076172,-0.29112374782562256
1712257497388328000,0.158327880859375,0.06776905059814453,0.17890548706054688,-0.23110675811767578
1712257497398327300,0.168327392578125,-0.2423877716064453,0.14543962478637695,-0.1308099627494812
1712257497408326700,0.17832666015625,-0.3109292984008789,0.10748696327209473,-0.12707531452178955
1712257497418326300,0.188326171875,-0.3155508041381836,0.07880735397338867,-0.19261384010314941
1712257497428325600,0.19832568359375,-0.3522472381591797,0.03846883773803711,-0.1718544363975525
1712257497438325000,0.208324951171875,-0.39931201934814453,0.012398004531860352,-0.15131235122680664
1712257497448324400,0.218324462890625,-0.4186744689941406,-0.0609889030456543,-0.10952222347259521
1712257497458323700,0.22832373046875,-0.4130430221557617,-0.12104320526123047,-0.16112571954727173
1712257497468322800,0.23832275390625,-0.2318134307861328,0.12988519668579102,-0.14144206047058105
1712257497478322200,0.248322265625,-0.1283130645751953,0.24060273170471191,-0.17352062463760376
1712257497488321500,0.258321533203125,-0.15947341918945312,0.24228525161743164,-0.25120049715042114
1712257497498320600,0.268320556640625,-0.08594322204589844,0.14673638343811035,-0.49251478910446167
1712257497508319700,0.27831982421875,-0.12795543670654297,0.19611692428588867,-0.5832496881484985
1712257497518318800,0.28831884765625,-0.06712150573730469,0.31249570846557617,-0.5717087984085083
1712257497528318000,0.29831787109375,-0.043979644775390625,0.43468332290649414,-0.4418434798717499
1712257497538317300,0.3083173828125,-0.08924198150634766,0.4947037696838379,-0.2714293599128723
1712257497548316400,0.31831640625,-0.20061302185058594,0.48053908348083496,-0.18838715553283691
1712257497558315300,0.328315185546875,-0.3115072250366211,0.49608683586120605,-0.13378691673278809
1712257497568314400,0.338314453125,-0.3410634994506836,0.4711322784423828,-0.19171428680419922
1712257497578313500,0.3483134765625,-0.23965835571289062,0.4315190315246582,-0.2905455231666565
1712257497588312600,0.3583125,-0.25211238861083984,0.445950984954834,-0.3820563852787018
1712257497598311700,0.368311767578125,0.1002817153930664,0.330672025680542,-0.3281431198120117
1712257497608310500,0.378310546875,0.161865234375,0.28206729888916016,-0.3586611747741699
1712257497618309600,0.3883095703125,0.1752490997314453,0.25356578826904297,-0.44886136054992676
1712257497628308500,0.39830859375,0.12451648712158203,0.2382974624633789,-0.49011462926864624
1712257497638307300,0.408307373046875,0.1129751205444336,0.19925522804260254,-0.5110070705413818
1712257497648306200,0.41830615234375,0.1069478988647461,0.21101927757263184,-0.46327927708625793
1712257497658305300,0.42830517578125,0.1491861343383789,0.2722642421722412,-0.3712017834186554
1712257497668304100,0.43830419921875,0.1440744400024414,0.29398012161254883,-0.33074426651000977
1712257497678303000,0.448302978515625,0.06325340270996094,0.27958154678344727,-0.2760927081108093
1712257497688301800,0.4583017578125,0.03610801696777344,0.2501649856567383,-0.23295074701309204
1712257497698300700,0.46830078125,-0.050101280212402344,0.2639017105102539,-0.17543333768844604
1712257497708299300,0.47829931640625,-0.11687755584716797,0.2693936824798584,-0.21984261274337769
1712257497718298000,0.488298095703125,-0.16467857360839844,0.2486262321472168,-0.2671448588371277
1712257497728296700,0.498296630859375,-0.17694377899169922,0.2141563892364502,-0.2694610357284546
1712257497738295600,0.508295654296875,-0.13718605041503906,0.20276594161987305,-0.2605653405189514
1712257497748294400,0.51829443359375,-0.10272884368896484,0.21416950225830078,-0.21699392795562744
1712257497758293000,0.52829296875,-0.04454231262207031,0.20685219764709473,-0.27554360032081604
1712257497768291800,0.538291748046875,-0.031701087951660156,0.23508858680725098,-0.2481558918952942
1712257497778290400,0.54829052734375,-0.08313465118408203,0.27684593200683594,-0.2337890863418579
1712257497788289300,0.558289306640625,-0.14139080047607422,0.2938117980957031,-0.24187719821929932
1712257497798288100,0.5682880859375,-0.21608352661132812,0.2884945869445801,-0.21258586645126343
1712257497808286700,0.57828662109375,-0.2785778045654297,0.2897937297821045,-0.23403489589691162
1712257497818285600,0.58828564453125,-0.25255870819091797,0.25321125984191895,-0.2586790919303894
1712257497828284200,0.5982841796875,-0.25803375244140625,0.23224711418151855,-0.2599183917045593
1712257497838283000,0.608282958984375,-0.3213510513305664,0.23641371726989746,-0.1942806839942932
1712257497848281900,0.61828173828125,-0.3828001022338867,0.20393133163452148,-0.15286153554916382
1712257497858280400,0.628280517578125,-0.36621761322021484,0.2106339931488037,-0.10536819696426392
1712257497868279300,0.638279296875,-0.26488304138183594,0.21854376792907715,-0.06069451570510864
1712257497878278100,0.648278076171875,-0.10200977325439453,0.2008836269378662,-0.05996352434158325
1712257497888276700,0.65827685546875,-0.04541778564453125,0.17639708518981934,-0.13755452632904053
1712257497898275600,0.668275634765625,-0.08011341094970703,0.14533352851867676,-0.18700844049453735
1712257497908274200,0.678274169921875,-0.1050119400024414,0.19224953651428223,-0.16756212711334229
1712257497918273000,0.68827294921875,-0.22039318084716797,0.2229912281036377,-0.16104024648666382
1712257497928271600,0.698271728515625,-0.37616443634033203,0.24523401260375977,-0.13849663734436035
1712257497938270500,0.7082705078125,-0.44143104553222656,0.2305302619934082,-0.09836333990097046
1712257497948269300,0.718269287109375,-0.35739707946777344,0.2494490146636963,-0.10826951265335083
1712257497958268000,0.728267822265625,-0.12920570373535156,0.1764838695526123,-0.19504451751708984
1712257497968266800,0.738266845703125,0.14784526824951172,0.17773818969726562,-0.21683454513549805
1712257497978265600,0.748265625,0.29996681213378906,0.17816925048828125,-0.24255025386810303
1712257497988264200,0.75826416015625,0.28528881072998047,0.21208930015563965,-0.2890256345272064
1712257497998263000,0.768262939453125,0.26030921936035156,0.2289581298828125,-0.21620911359786987
1712257498008262000,0.778261962890625,0.20838451385498047,0.22154879570007324,-0.14805197715759277
1712257498018260700,0.7882607421875,0.13898849487304688,0.25708651542663574,-0.12274926900863647
1712257498028259300,0.79825927734375,0.08984184265136719,0.28449392318725586,-0.069766104221344
1712257498038258200,0.808258056640625,0.06504344940185547,0.28658509254455566,-0.11475974321365356
1712257498048256800,0.8182568359375,-0.010029792785644531,0.27874755859375,-0.06503385305404663
1712257498058255600,0.828255615234375,-0.08057403564453125,0.24477767944335938,-0.1180652379989624
1712257498068254200,0.838254150390625,-0.08689403533935547,0.2282721996307373,-0.1969592571258545
1712257498078253000,0.848253173828125,-0.00988006591796875,0.20107603073120117,-0.26484906673431396
1712257498088251600,0.858251708984375,0.026328086853027344,0.17681312561035156,-0.306680828332901
1712257498098250500,0.86825048828125,0.06093311309814453,0.17449688911437988,-0.3007221519947052
1712257498108249300,0.878249267578125,0.02463817596435547,0.1885228157043457,-0.24836790561676025
1712257498118248000,0.888248046875,-0.05149269104003906,0.20469951629638672,-0.20221519470214844
1712257498128246800,0.898246826171875,-0.10544109344482422,0.22629022598266602,-0.16492199897766113
1712257498138245400,0.908245361328125,-0.11603260040283203,0.22087740898132324,-0.13809144496917725
1712257498148244200,0.918244140625,-0.12653255462646484,0.22469735145568848,-0.17101752758026123
1712257498158242800,0.928242919921875,-0.13479137420654297,0.20972490310668945,-0.19609063863754272
1712257498168241400,0.938241455078125,-0.16973209381103516,0.21508526802062988,-0.12037760019302368
1712257498178240300,0.948240234375,-0.22659969329833984,0.2216639518737793,-0.14230108261108398
1712257498188239000,0.958239013671875,-0.18560028076171875,0.23395419120788574,-0.12531167268753052
1712257498198237700,0.96823779296875,-0.06828498840332031,0.22107481956481934,-0.14682698249816895
1712257498208236500,0.978236572265625,0.027464866638183594,0.2395954132080078,-0.14021438360214233
1712257498218235400,0.9882353515625,0.037255287170410156,0.24774599075317383,-0.14089876413345337
1712257498228234000,0.99823388671875,0.04494667053222656,0.25017523765563965,-0.1300121545791626
1712257498238232800,1.00823291015625,0.08166885375976562,0.25882434844970703,-0.1650044322013855
1712257498248231700,1.018231689453125,0.1306018829345703,0.2738821506500244,-0.22661757469177246
1712257498258230300,1.028230224609375,0.08166122436523438,0.29251646995544434,-0.27577391266822815
1712257498268229000,1.03822900390625,0.03548622131347656,0.2880218029022217,-0.25477808713912964
1712257498278227700,1.048227783203125,0.0015954971313476562,0.2510864734649658,-0.2524062395095825
1712257498288226600,1.0582265625,0.02124309539794922,0.21119928359985352,-0.2173662781715393
1712257498298225400,1.068225341796875,0.016399383544921875,0.16484475135803223,-0.16325831413269043
1712257498308224000,1.07822412109375,-0.048768043518066406,0.16685032844543457,-0.13388723134994507
1712257498318222800,1.088222900390625,-0.07109737396240234,0.12756824493408203,-0.10216695070266724
1712257498328221400,1.098221435546875,-0.041268348693847656,0.09801554679870605,-0.024631142616271973
1712257498338220300,1.10822021484375,-0.05582141876220703,0.10663509368896484,-0.01322484016418457
1712257498348219100,1.11821923828125,-0.06827831268310547,0.10875368118286133,-0.06740140914916992
1712257498358217700,1.1282177734375,-0.03771209716796875,0.10848760604858398,-0.11581486463546753
1712257498368216600,1.138216552734375,-0.019159317016601562,0.09158682823181152,-0.17133080959320068
1712257498378215400,1.14821533203125,-0.05083751678466797,0.09606027603149414,-0.19810205698013306
1712257498388214000,1.158214111328125,-0.060654640197753906,0.0853872299194336,-0.1913151741027832
1712257498398212900,1.168212890625,-0.04925537109375,0.06650137901306152,-0.16818112134933472
1712257498408211700,1.178211669921875,-0.062125205993652344,0.06584858894348145,-0.11488461494445801
1712257498418210300,1.188210205078125,-0.07522201538085938,0.08310246467590332,-0.12261539697647095
1712257498428209200,1.198209228515625,-0.01656055450439453,0.08636164665222168,-0.08999484777450562
1712257498438208000,1.2082080078125,-0.010692596435546875,0.04471635818481445,-0.07943576574325562
1712257498448206600,1.21820654296875,0.014113426208496094,0.008768081665039062,-0.0597957968711853
1712257498458205700,1.228205810546875,-0.01634693145751953,0.0048558712005615234,-0.03620952367782593
1712257498468204500,1.23820458984375,-0.03723716735839844,0.046765804290771484,0.014896750450134277
1712257498478203400,1.248203369140625,-0.0005435943603515625,0.04566216468811035,0.01594388484954834
1712257498488202500,1.258202392578125,-0.004633903503417969,0.049921274185180664,-0.020148754119873047
1712257498498201300,1.268201416015625,-0.03754901885986328,0.03538227081298828,-0.03005141019821167
1712257498508200400,1.278200439453125,-0.07529830932617188,0.03050374984741211,-0.022816896438598633
1712257498518199600,1.288199462890625,-0.031653404235839844,0.018567800521850586,-0.03271359205245972
1712257498528198400,1.298198486328125,0.011852264404296875,0.04078340530395508,0.021347403526306152
1712257498538197500,1.308197509765625,0.024339675903320312,0.046156883239746094,0.06217479705810547
1712257498548196600,1.318196533203125,-0.03250312805175781,0.03234696388244629,0.03687179088592529
1712257498558195700,1.32819580078125,-0.08680248260498047,0.049219369888305664,-0.010280609130859375
1712257498568194800,1.33819482421875,-0.04034614562988281,0.05572223663330078,0.01014631986618042
1712257498578193700,1.348193603515625,-0.0465850830078125,0.04316401481628418,0.013715863227844238
1712257498588192800,1.35819287109375,-0.05307769775390625,0.014554262161254883,-0.0058743953704833984
1712257498598191900,1.36819189453125,-0.040691375732421875,-0.022767066955566406,0.02996194362640381
1712257498608191000,1.37819091796875,0.021610260009765625,-0.051557064056396484,0.02226012945175171
1712257498618190000,1.388190185546875,0.04769420623779297,0.004553556442260742,0.045438170433044434
1712257498628189200,1.398189208984375,0.059505462646484375,0.04126143455505371,0.006040990352630615
1712257498638188000,1.40818798828125,0.033316612243652344,0.04099893569946289,-0.014203071594238281
1712257498648187100,1.418187255859375,-0.038252830505371094,0.0354311466217041,-0.019474267959594727
1712257498658186200,1.428186279296875,-0.0402374267578125,0.0052607059478759766,0.006986021995544434
1712257498668185300,1.438185302734375,-0.04483509063720703,-0.03612804412841797,0.016701161861419678
1712257498678184200,1.44818408203125,0.03637504577636719,-0.06407880783081055,-0.010121464729309082
1712257498688183300,1.458183349609375,0.066864013671875,-0.04506564140319824,-0.012828171253204346
1712257498698182400,1.468182373046875,0.08040046691894531,-0.018373966217041016,-0.014741599559783936
1712257498708181500,1.478181396484375,0.09160327911376953,-0.0207366943359375,-0.006592392921447754
1712257498718180600,1.4881806640625,0.08849620819091797,-0.04972648620605469,-0.014747262001037598
1712257498728179700,1.4981796875,0.051873207092285156,-0.03335094451904297,-0.015210926532745361
1712257498738178600,1.508178466796875,-0.02765369415283203,-0.012840509414672852,-0.01810544729232788
1712257498748177700,1.518177734375,-0.08539581298828125,0.002080678939819336,0.031615257263183594
1712257498758176500,1.528176513671875,-0.0903940200805664,0.02897500991821289,0.04192739725112915
1712257498768175400,1.53817529296875,-0.02111530303955078,-0.011126279830932617,0.010528862476348877
1712257498778174200,1.54817431640625,0.024153709411621094,-0.02456188201904297,-0.033291637897491455
1712257498788173000,1.558173095703125,-0.0025701522827148438,-0.04710102081298828,-0.06232810020446777
1712257498798172000,1.568171875,-0.06286239624023438,-0.021755456924438477,-0.021159827709197998
1712257498808170500,1.57817041015625,-0.07026100158691406,-0.011500358581542969,0.04377228021621704
1712257498818169300,1.58816943359375,-0.058341026306152344,0.0008456707000732422,0.047695934772491455
1712257498828168000,1.59816796875,-0.0009765625,-0.005806446075439453,0.01092296838760376
1712257498838166800,1.608166748046875,0.03946971893310547,-0.06945419311523438,-0.018294572830200195
1712257498848165400,1.618165283203125,0.02212238311767578,-0.048416852951049805,-0.03197884559631348
1712257498858164200,1.628164306640625,0.014286994934082031,-0.02248692512512207,-0.004418551921844482
1712257498868163000,1.6381630859375,0.03762340545654297,-0.013378620147705078,0.025121450424194336
1712257498878161700,1.64816162109375,0.03467369079589844,-0.009075164794921875,0.0012636184692382812
1712257498888160500,1.658160400390625,0.005511283874511719,0.006850242614746094,-0.0014029741287231445
1712257498898159000,1.6681591796875,-0.06177806854248047,0.019771575927734375,0.019774138927459717
1712257498908158000,1.678157958984375,-0.08807563781738281,0.04128623008728027,0.02410191297531128
1712257498918156500,1.688156494140625,-0.08308982849121094,0.050505638122558594,-0.0156669020652771
1712257498928155400,1.6981552734375,-0.05893707275390625,0.009306669235229492,-0.02866339683532715
1712257498938154200,1.708154296875,-0.049317359924316406,0.021176815032958984,0.009430110454559326
1712257498948152800,1.71815283203125,-0.06359004974365234,0.0544743537902832,0.025750577449798584
1712257498958151700,1.728151611328125,-0.1182394027709961,0.041190385818481445,-0.06108349561691284
1712257498968150500,1.738150634765625,-0.13199710845947266,-0.008931159973144531,-0.03178703784942627
1712257498978149000,1.748149169921875,-0.08357524871826172,-0.0013477802276611328,0.02145940065383911
1712257498988148000,1.75814794921875,-0.049617767333984375,0.021219491958618164,0.004090785980224609
1712257498998146800,1.768146728515625,-0.03735923767089844,0.008383989334106445,0.025037944316864014
1712257499008145400,1.7781455078125,0.0010347366333007812,-0.013312101364135742,0.06031084060668945
1712257499018144300,1.788144287109375,0.03439617156982422,-0.04591178894042969,0.04668903350830078
1712257499028142800,1.798142822265625,0.06513595581054688,-0.04881906509399414,0.013150155544281006
1712257499038141700,1.8081416015625,0.05739021301269531,-0.04150652885437012,-0.013275980949401855
1712257499048140500,1.818140625,0.07114791870117188,-0.012622594833374023,0.011146187782287598
1712257499058139100,1.82813916015625,0.08007049560546875,-0.012276172637939453,0.018705427646636963
1712257499068138000,1.838137939453125,0.08900737762451172,-0.009639978408813477,0.002582371234893799
1712257499078136600,1.848136474609375,0.0810699462890625,-0.03556084632873535,-0.03651612997055054
1712257499088135400,1.858135498046875,0.0657949447631836,-0.030095815658569336,-0.02170950174331665
1712257499098134300,1.86813427734375,0.0074367523193359375,-0.04879641532897949,0.0034354329109191895
1712257499108132900,1.8781328125,-0.041229248046875,-0.03670144081115723,0.016329526901245117
1712257499118131700,1.888131591796875,-0.04905986785888672,-0.020097017288208008,-0.017072856426239014
1712257499128130600,1.898130615234375,-0.02804279327392578,-0.027730464935302734,-0.05093562602996826
1712257499138129200,1.908129150390625,-0.042799949645996094,-0.026275634765625,-0.01777106523513794
1712257499148128000,1.9181279296875,-0.06950569152832031,-0.017681598663330078,-0.006295382976531982
1712257499158126800,1.928126953125,-0.09602642059326172,-0.004965543746948242,0.05312156677246094
1712257499168125400,1.93812548828125,-0.05050468444824219,0.016671419143676758,0.07382148504257202
1712257499178124300,1.948124267578125,-0.014523506164550781,-0.007158041000366211,0.024463415145874023
1712257499188123000,1.958122802734375,-0.012195587158203125,-0.018795013427734375,-0.016689598560333252
1712257499198121700,1.968121826171875,-0.04356575012207031,-0.04452037811279297,-0.053939759731292725
1712257499208120300,1.978120361328125,-0.06305217742919922,-0.024751663208007812,-0.042006492614746094
1712257499218119200,1.988119140625,-0.02043628692626953,-0.011632442474365234,-0.006132245063781738
1712257499228117800,1.99811767578125,0.024704933166503906,0.010940313339233398,-0.0004717707633972168
1712257499238116600,2.00811669921875,0.0052890777587890625,0.002293109893798828,-0.012480437755584717
1712257499248115200,2.018115234375,-0.013928413391113281,0.03154468536376953,0.029351413249969482
1712257499258114000,2.028114013671875,0.017362594604492188,0.009734630584716797,0.03273916244506836
1712257499268112600,2.038112548828125,0.0677490234375,-0.016503334045410156,0.04746437072753906
1712257499278111500,2.048111572265625,0.07250595092773438,-0.01102900505065918,0.004308938980102539
1712257499288110300,2.0581103515625,0.015146255493164062,0.005584239959716797,-0.07081884145736694
1712257499298109000,2.06810888671875,-0.03731822967529297,0.002263307571411133,-0.05564087629318237
1712257499308107800,2.078107666015625,-0.08716487884521484,-0.01159214973449707,-0.0660785436630249
1712257499318106400,2.0881064453125,-0.06046485900878906,0.015505790710449219,-0.050161540508270264
1712257499328105200,2.098105224609375,-0.0888814926147461,0.004456043243408203,-0.0940811038017273
1712257499338104000,2.10810400390625,-0.04086494445800781,-0.006239891052246094,-0.08884656429290771
1712257499348102700,2.1181025390625,-0.012272834777832031,-0.02076268196105957,-0.050127506256103516
1712257499358101500,2.1281015625,0.008901596069335938,-0.027197837829589844,0.04810458421707153
1712257499368100400,2.138100341796875,-0.017856597900390625,-0.030727148056030273,0.12087047100067139
1712257499378099200,2.14809912109375,-0.04203224182128906,0.018256425857543945,0.13162660598754883
1712257499388097800,2.158097900390625,-0.03243255615234375,-0.009752511978149414,0.07306927442550659
1712257499398096600,2.1680966796875,-0.04183006286621094,-0.0021517276763916016,0.06376636028289795
1712257499408095200,2.17809521484375,-0.043913841247558594,0.02906513214111328,0.04195290803909302
1712257499418094000,2.188093994140625,-0.07464408874511719,0.023958206176757812,0.051750898361206055
1712257499428092700,2.1980927734375,-0.10518646240234375,0.0373380184173584,0.047272324562072754
1712257499438091500,2.208091552734375,-0.078277587890625,-0.023580551147460938,0.0026084184646606445
1712257499448090400,2.21809033203125,-0.015874862670898438,-0.04020190238952637,-0.012159943580627441
1712257499458089000,2.2280888671875,0.01975536346435547,-0.04119443893432617,-0.02102452516555786
1712257499468087800,2.238087890625,0.012097358703613281,-0.02018284797668457,-0.007439076900482178
1712257499478086700,2.248086669921875,-0.0002002716064453125,-0.026287555694580078,-0.033486783504486084
1712257499488085200,2.258085205078125,0.016463279724121094,-0.03801727294921875,0.010010778903961182
1712257499498084000,2.268083984375,0.009045600891113281,-0.03239941596984863,0.00042700767517089844
1712257499508083000,2.2780830078125,-0.03908348083496094,-0.002701997756958008,0.00475311279296875
1712257499518081500,2.28808154296875,-0.07274246215820312,-0.021236181259155273,0.06407386064529419
1712257499528080400,2.298080322265625,-0.08248329162597656,0.01813650131225586,0.0644652247428894
1712257499538079200,2.308079345703125,-0.1734333038330078,-0.017260313034057617,0.04988890886306763
1712257499548078000,2.318078125,-0.223724365234375,-0.0981290340423584,0.08618336915969849
1712257499558077000,2.328076904296875,-0.22421646118164062,-0.1724073886871338,0.09806817770004272
1712257499568075800,2.33807568359375,-0.24934959411621094,-0.21053600311279297,0.039892494678497314
1712257499578074600,2.34807470703125,-0.3300895690917969,-0.1823437213897705,-0.012515604496002197
1712257499588073500,2.358073486328125,-0.3538780212402344,-0.0616762638092041,-0.03720635175704956
1712257499598072300,2.368072265625,-0.30368518829345703,0.1120905876159668,-0.062470078468322754
1712257499608071200,2.3780712890625,-0.06895160675048828,0.13856124877929688,-0.12111306190490723
1712257499618070000,2.388070068359375,0.1663351058959961,0.07494044303894043,-0.11365842819213867
1712257499628068900,2.39806884765625,0.23868274688720703,-0.04585552215576172,-0.0955156683921814
1712257499638067700,2.408067626953125,0.2949552536010742,-0.05427241325378418,-0.08390486240386963
1712257499648066600,2.418066650390625,0.31897449493408203,-0.009560585021972656,-0.06354176998138428
1712257499658065400,2.4280654296875,0.2077178955078125,0.0670323371887207,0.0034584403038024902
1712257499668064300,2.438064208984375,0.09718990325927734,0.12670087814331055,0.09407567977905273
1712257499678063000,2.44806298828125,0.1732940673828125,0.10062909126281738,0.05782836675643921
1712257499688062000,2.45806201171875,0.30868053436279297,0.0268402099609375,0.007655024528503418
1712257499698060800,2.468060791015625,0.32418346405029297,-0.021846532821655273,-0.030418992042541504
1712257499708059600,2.4780595703125,0.19888687133789062,0.03578615188598633,0.002210676670074463
1712257499718058500,2.48805859375,0.10061168670654297,0.06714367866516113,0.007737338542938232
1712257499728057300,2.498057373046875,-0.006716728210449219,0.05127739906311035,0.010048747062683105
1712257499738056200,2.50805615234375,-0.049144744873046875,0.07758474349975586,-0.0019978880882263184
1712257499748055000,2.518054931640625,-0.09409618377685547,0.010804891586303711,-0.05397796630859375
1712257499758054000,2.528053955078125,-0.17041015625,-0.04339289665222168,-0.08568060398101807
1712257499768052700,2.538052734375,-0.16558837890625,-0.0560915470123291,-0.054279863834381104
1712257499778051600,2.548051513671875,-0.13944435119628906,-0.0631403923034668,-0.020656883716583252
1712257499788050400,2.558050537109375,-0.12298393249511719,-0.04582476615905762,0.0009077191352844238
1712257499798049300,2.56804931640625,-0.13292503356933594,0.005147457122802734,0.001334071159362793
1712257499808048000,2.578048095703125,-0.14325809478759766,-0.00012063980102539062,-0.03081756830215454
1712257499818047000,2.588046875,-0.03887748718261719,-0.026216506958007812,-0.09377336502075195
1712257499828045800,2.5980458984375,0.06522941589355469,-0.0680384635925293,-0.1209726631641388
1712257499838044700,2.608044677734375,0.16224384307861328,-0.10110187530517578,-0.08120420575141907
1712257499848043500,2.61804345703125,0.18486785888671875,-0.08815717697143555,-0.0001925826072692871
1712257499858042000,2.6280419921875,0.16703128814697266,-0.05445098876953125,0.06608080863952637
1712257499868041000,2.638041015625,0.1639842987060547,-0.012516975402832031,0.1194448471069336
1712257499878039600,2.64803955078125,0.12069416046142578,0.06861615180969238,0.1193467378616333
1712257499888038400,2.658038330078125,0.1163787841796875,0.08011722564697266,0.06964457035064697
1712257499898037000,2.668037109375,0.14402008056640625,0.04409360885620117,0.053134024143218994
1712257499908035800,2.678035888671875,0.19345951080322266,-0.026586532592773438,-0.00973045825958252
1712257499918034400,2.688034423828125,0.2675132751464844,-0.037552833557128906,-0.09548011422157288
1712257499928033300,2.698033203125,0.2684307098388672,-0.011649608612060547,-0.07809954881668091
1712257499938032000,2.7080322265625,0.17736053466796875,0.06914281845092773,0.01677614450454712
1712257499948030700,2.71803076171875,0.010894775390625,0.16948175430297852,0.09909537434577942
1712257499958029600,2.728029541015625,-0.1887655258178711,0.13441848754882812,0.010013073682785034
1712257499968028400,2.7380283203125,-0.2908821105957031,-0.20277190208435059,-0.22326096892356873
1712257499978027000,2.748027099609375,-0.521336555480957,-0.5036425590515137,-0.24651925265789032
1712257499988025900,2.75802587890625,-0.24981021881103516,-0.16587424278259277,0.15482258796691895
1712257499998024700,2.768024658203125,-0.15621662139892578,0.09084701538085938,0.227545827627182
1712257500008023300,2.778023193359375,-0.08427810668945312,0.24117755889892578,0.20234951376914978
1712257500018022100,2.788022216796875,0.01412200927734375,0.25228118896484375,0.21840296685695648
1712257500028020700,2.798020751953125,0.018117904663085938,0.18265032768249512,0.3034856915473938
1712257500038019600,2.80801953125,-0.14649009704589844,0.06314969062805176,0.15960289537906647
1712257500048018400,2.818018310546875,-0.12386798858642578,-0.04084897041320801,0.10048370063304901
1712257500058017000,2.82801708984375,0.0059051513671875,-0.005541324615478516,0.10360358655452728
1712257500068015900,2.838015869140625,-0.1904296875,0.09692907333374023,0.0822577178478241
1712257500078014500,2.848014404296875,-0.44942378997802734,0.15614533424377441,0.24510794878005981
1712257500088013300,2.858013427734375,0.05848979949951172,0.2803525924682617,0.47831660509109497
1712257500098012200,2.86801220703125,0.16563129425048828,0.3347506523132324,0.8592949509620667
1712257500108010800,2.8780107421875,0.158203125,0.4599308967590332,1.1880451440811157
1712257500118009600,2.888009521484375,0.5639762878417969,0.48857617378234863,0.9691527485847473
1712257500128008400,2.898008544921875,0.4975709915161133,0.29194211959838867,1.8655552864074707
1712257500138007000,2.908007080078125,0.4806709289550781,1.0061075687408447,2.340071439743042
1712257500148006000,2.918005859375,-0.6712532043457031,3.444779634475708,4.995391845703125
1712257500158004700,2.928004638671875,0.11139774322509766,4.717668533325195,6.404575824737549
1712257500168003300,2.93800341796875,1.2898244857788086,3.0659055709838867,5.738788604736328
1712257500178002200,2.948002197265625,1.461709976196289,2.0221636295318604,4.929084777832031
1712257500188000800,2.958000732421875,1.0119352340698242,1.441617488861084,4.40582799911499
1712257500197999600,2.96799951171875,0.08596324920654297,1.4730591773986816,3.9498908519744873
1712257500207998500,2.97799853515625,-0.8883705139160156,1.5526654720306396,3.5087873935699463
1712257500217997000,2.9879970703125,-1.7859587669372559,1.61112380027771,3.6388227939605713
1712257500227996000,2.997995849609375,-2.169281482696533,1.597034215927124,4.082652568817139
1712257500237994500,3.007994384765625,-1.8705906867980957,1.5634434223175049,4.292324066162109
1712257500247993300,3.017993408203125,-1.359964370727539,1.4765539169311523,4.156737327575684
1712257500257992000,3.027991943359375,-0.8109941482543945,1.1239900588989258,3.8994216918945312
1712257500267990800,3.03799072265625,-0.24463462829589844,0.8353147506713867,3.629350185394287
1712257500277989400,3.0479892578125,-0.23549938201904297,0.43776750564575195,3.210533857345581
1712257500287988200,3.05798828125,-0.2508563995361328,-0.1745131015777588,2.566197395324707
1712257500297986800,3.06798681640625,0.07315731048583984,-0.575874924659729,1.7305874824523926
1712257500307985400,3.0779853515625,0.12973403930664062,-0.9162783622741699,0.8725322484970093
1712257500317984300,3.087984375,-0.15709209442138672,-1.2611663341522217,0.08486247062683105
1712257500327983000,3.097983154296875,-0.39939117431640625,-1.445549726486206,-0.18125271797180176
1712257500337981700,3.107981689453125,-0.6601161956787109,-1.5454473495483398,-0.19624203443527222
1712257500347980500,3.11798046875,-0.8298892974853516,-1.8885196447372437,-0.45564931631088257
1712257500357979400,3.1279794921875,-0.5984268188476562,-2.2752230167388916,-1.135519027709961
1712257500367978000,3.13797802734375,-0.43310070037841797,-2.6774370670318604,-1.941838264465332
1712257500377976800,3.147976806640625,-0.35710620880126953,-3.1221532821655273,-2.821478843688965
1712257500387975400,3.157975341796875,-0.1500873565673828,-3.739746570587158,-3.811248779296875
1712257500397974300,3.167974365234375,-0.05192089080810547,-4.4664716720581055,-4.872179985046387
1712257500407973000,3.17797314453125,0.1407785415649414,-4.935904502868652,-5.927061080932617
1712257500417971700,3.1879716796875,0.4130687713623047,-5.2389373779296875,-6.748170852661133
1712257500428203500,3.19820361328125,0.7579879760742188,-5.354079723358154,-7.410055160522461
1712257500438202400,3.208202392578125,1.1335134506225586,-5.415205001831055,-7.867599964141846
1712257500448201000,3.218200927734375,1.2343063354492188,-5.5527801513671875,-8.16478157043457
1712257500458199800,3.22819970703125,1.097381591796875,-5.74665641784668,-8.344271659851074
1712257500468198700,3.23819873046875,1.2087335586547852,-6.060140609741211,-8.565195083618164
1712257500478197200,3.248197265625,1.366607666015625,-6.241089820861816,-8.816533088684082
1712257500488196000,3.258196044921875,0.941288948059082,-6.607020378112793,-9.124457359313965
1712257500498194700,3.268194580078125,0.5773248672485352,-6.777866363525391,-9.5178861618042
1712257500508193500,3.278193603515625,0.4706106185913086,-6.577304840087891,-9.958693504333496
1712257500518192400,3.2881923828125,0.6251277923583984,-6.381967544555664,-10.109783172607422
1712257500528191000,3.29819091796875,0.7481222152709961,-6.325019836425781,-10.008472442626953
1712257500538189800,3.30818994140625,0.8758039474487305,-6.282029151916504,-9.59150218963623
1712257500548188700,3.318188720703125,1.0013093948364258,-6.097611427307129,-8.716546058654785
1712257500558187300,3.328187255859375,1.0097808837890625,-5.896752834320068,-7.245162010192871
1712257500568186000,3.33818603515625,0.8653793334960938,-5.741785049438477,-5.3344855308532715
1712257500578185000,3.34818505859375,0.5679769515991211,-5.330819129943848,-3.1722888946533203
1712257500588183600,3.35818359375,0.9841928482055664,-4.420899391174316,-1.599394679069519
1712257500598182700,3.3681826171875,1.7036399841308594,-3.9727535247802734,-0.9587066769599915
1712257500608181500,3.378181396484375,1.8314294815063477,-4.117711544036865,-0.7410410642623901
1712257500618180400,3.388180419921875,1.2880134582519531,-4.409604072570801,-0.8301947712898254
1712257500628179500,3.398179443359375,0.1934490203857422,-4.628252983093262,-0.2692139744758606
1712257500638178300,3.40817822265625,-0.4906644821166992,-3.942512273788452,1.7398853302001953
1712257500648177400,3.418177490234375,-0.4936380386352539,-2.5842342376708984,4.148770332336426
1712257500658176500,3.428176513671875,0.1209869384765625,-1.7357728481292725,5.363475322723389
1712257500668175400,3.43817529296875,0.5774478912353516,-1.3743040561676025,6.554895877838135
1712257500678174500,3.448174560546875,0.8074312210083008,-0.336908221244812,8.559317588806152
1712257500688173600,3.458173583984375,1.0992536544799805,1.3070447444915771,10.52133560180664
1712257500698172700,3.468172607421875,1.3291568756103516,2.5167222023010254,11.85442066192627
1712257500708171800,3.478171875,1.3665399551391602,2.9870986938476562,11.941885948181152
1712257500718171000,3.4881708984375,0.8485622406005859,3.128676414489746,11.662972450256348
1712257500728169700,3.498169677734375,-0.09524059295654297,3.086282968521118,11.22116756439209
1712257500738168800,3.5081689453125,-0.9126825332641602,2.9981021881103516,10.711634635925293
1712257500748168000,3.51816796875,-1.2275257110595703,3.091949701309204,10.55349063873291
1712257500758167000,3.5281669921875,-1.2040786743164062,3.2707202434539795,10.661819458007812
1712257500768166100,3.538166259765625,-0.8043317794799805,3.353853225708008,10.71138858795166
1712257500778165000,3.5481650390625,-0.2911796569824219,3.5129594802856445,10.830855369567871
1712257500788164000,3.5581640625,0.09190082550048828,3.5293354988098145,10.581541061401367
1712257500798163200,3.5681630859375,0.2455768585205078,3.314345598220825,9.94233226776123
1712257500808162000,3.578162109375,-0.17218399047851562,2.9513230323791504,9.093660354614258
1712257500818161200,3.5881611328125,-0.4752321243286133,2.451881170272827,8.415738105773926
1712257500828160300,3.59816015625,-0.609745979309082,2.2044692039489746,8.368386268615723
1712257500838159400,3.608159423828125,-0.2914009094238281,1.9634430408477783,8.092348098754883
1712257500848158500,3.618158447265625,-0.21187686920166016,1.3085575103759766,7.014462947845459
1712257500858157600,3.628157470703125,-0.4752979278564453,0.5121212005615234,5.769655704498291
1712257500868156700,3.63815673828125,-0.9493312835693359,0.09867703914642334,4.837249279022217
1712257500878155500,3.648155517578125,-0.9428081512451172,0.04465365409851074,4.399053573608398
1712257500888154600,3.658154541015625,-0.004103660583496094,-0.003591775894165039,3.718289852142334
1712257500898153500,3.668153564453125,1.6871757507324219,-0.4104059934616089,2.721116065979004
1712257500908152300,3.67815234375,2.147650718688965,-1.059549331665039,1.508772611618042
1712257500918151200,3.688151123046875,1.8636713027954102,-1.6846182346343994,0.12438589334487915
1712257500928150000,3.69814990234375,1.0636272430419922,-2.335045337677002,-1.3635828495025635
1712257500938148900,3.70814892578125,0.22080039978027344,-2.8368873596191406,-2.5543293952941895
1712257500948147700,3.718147705078125,0.0016336441040039062,-3.08963942527771,-3.3643412590026855
1712257500958146300,3.728146240234375,0.5336341857910156,-3.051302433013916,-3.572808265686035
1712257500968145200,3.738145263671875,1.3902959823608398,-2.652243137359619,-3.121934413909912
1712257500978143700,3.748143798828125,2.429022789001465,-2.252622127532959,-2.9017934799194336
1712257500988142600,3.758142578125,3.289623260498047,-2.203873634338379,-3.250664472579956
1712257500998141200,3.76814111328125,3.3299551010131836,-2.554612874984741,-3.94039249420166
1712257501008140000,3.77814013671875,2.553525924682617,-2.8216419219970703,-4.567368030548096
1712257501018138600,3.788138671875,1.1819343566894531,-3.0345911979675293,-5.152561664581299
1712257501028137200,3.79813720703125,0.6057949066162109,-3.140505790710449,-5.688990592956543
1712257501038136000,3.808135986328125,0.8706130981445312,-3.3295788764953613,-6.371293067932129
1712257501048135000,3.818135009765625,1.129836082458496,-3.57193660736084,-7.1258392333984375
1712257501058133500,3.828133544921875,1.0239810943603516,-3.844775438308716,-7.834901809692383
1712257501068132400,3.83813232421875,0.7730875015258789,-4.090330123901367,-8.32540512084961
1712257501078131000,3.848130859375,0.26091766357421875,-4.298669815063477,-8.633249282836914
1712257501088129800,3.8581298828125,0.2681255340576172,-4.329866409301758,-8.609187126159668
1712257501098128600,3.868128662109375,-0.5802373886108398,-4.638185024261475,-8.491235733032227
1712257501108127200,3.878127197265625,-0.7267370223999023,-4.5703558921813965,-8.151215553283691
1712257501118126000,3.8881259765625,-0.5963821411132812,-4.397566795349121,-7.7639265060424805
1712257501128125000,3.898125,-0.2878093719482422,-4.3617143630981445,-7.535190582275391
1712257501138123500,3.90812353515625,-0.518977165222168,-4.442592620849609,-7.357397079467773
1712257501148122400,3.918122314453125,-0.6926765441894531,-4.249990940093994,-6.989173412322998
1712257501158121200,3.928121337890625,-0.32293128967285156,-4.024283409118652,-6.240894794464111
1712257501168119800,3.938119873046875,0.20143890380859375,-3.75460147857666,-5.36402702331543
1712257501178118700,3.94811865234375,0.19812297821044922,-3.5434322357177734,-4.423557758331299
1712257501188117500,3.958117431640625,0.04915618896484375,-3.220963716506958,-3.5534462928771973
1712257501198116000,3.9681162109375,-0.0011930465698242188,-3.0102314949035645,-2.9151694774627686
1712257501208115000,3.978114990234375,-0.27445316314697266,-2.8366270065307617,-2.349341630935669
1712257501218113800,3.98811376953125,-0.4093780517578125,-2.456768751144409,-1.6448687314987183
1712257501228112400,3.9981123046875,-0.21259212493896484,-2.098615884780884,-0.9811874628067017
1712257501238111200,4.008111328125,-0.027085304260253906,-1.867777943611145,-0.1520586907863617
1712257501248109800,4.01810986328125,-0.04440593719482422,-1.4241218566894531,0.8724037408828735
1712257501258108700,4.028108642578125,-0.18001842498779297,-0.8016277551651001,1.8658440113067627
1712257501268107500,4.038107421875,-0.11285114288330078,-0.19555091857910156,3.0334811210632324
1712257501278106000,4.048106201171875,0.25737571716308594,0.41376447677612305,4.401711463928223
1712257501288105000,4.05810498046875,0.7200822830200195,0.9859521389007568,5.894036293029785
1712257501298103600,4.068103515625,0.9238958358764648,1.7610206604003906,7.496011257171631
1712257501308102400,4.078102294921875,0.8076848983764648,2.3852055072784424,8.881580352783203
1712257501318101200,4.088101318359375,0.2808103561401367,2.804340124130249,9.88916301727295
1712257501328099800,4.098099853515625,-0.6084423065185547,2.980480432510376,10.359240531921387
1712257501338098700,4.1080986328125,-1.2876625061035156,3.2476537227630615,10.818154335021973
1712257501348097300,4.11809716796875,-1.4632959365844727,3.592526912689209,11.36824893951416
1712257501358096100,4.12809619140625,-1.5627198219299316,3.9507296085357666,11.916338920593262
1712257501368095000,4.138094970703125,-1.7250843048095703,4.192163467407227,12.372097969055176
1712257501378093600,4.148093505859375,-2.1726951599121094,4.270077705383301,12.474157333374023
1712257501388092200,4.158092041015625,-2.4055848121643066,4.021125316619873,12.39538860321045
1712257501398091000,4.168091064453125,-2.2310738563537598,3.800042152404785,12.070561408996582
1712257501408089900,4.17808984375,-1.805506706237793,3.4087953567504883,11.407258987426758
1712257501418088400,4.18808837890625,-1.2842950820922852,3.2036185264587402,10.515413284301758
1712257501428087000,4.198087158203125,-1.2226190567016602,2.8727152347564697,9.564627647399902
1712257501438086000,4.2080859375,-1.3276700973510742,2.27519154548645,8.29430866241455
1712257501448084500,4.21808447265625,-1.1506500244140625,1.4357378482818604,6.929844379425049
1712257501458083300,4.228083251953125,-0.5669755935668945,0.7587636709213257,5.546367645263672
1712257501468082200,4.238082275390625,0.5261240005493164,-0.006376504898071289,4.191068172454834
1712257501478080800,4.248080810546875,1.7409038543701172,-0.7790123224258423,2.8972861766815186
1712257501488079600,4.25807958984375,2.530106544494629,-1.351020097732544,1.648970603942871
1712257501498078200,4.268078125,2.966775894165039,-1.683054804801941,0.481079638004303
1712257501508077000,4.2780771484375,3.085066795349121,-2.3827574253082275,-0.9405044913291931
1712257501518076000,4.288075927734375,2.9964075088500977,-3.135653495788574,-2.4791738986968994
1712257501528074500,4.298074462890625,2.596653938293457,-3.8086657524108887,-3.8996806144714355
1712257501538073300,4.3080732421875,2.0841541290283203,-4.338228702545166,-5.271485805511475
1712257501548072200,4.318072265625,1.6667203903198242,-4.792428016662598,-6.525620460510254
1712257501558070800,4.32807080078125,1.3297910690307617,-5.035640239715576,-7.654088497161865
1712257501568069600,4.338069580078125,1.0446996688842773,-5.248574256896973,-8.675950050354004
1712257501578068200,4.348068115234375,0.7539501190185547,-5.516463279724121,-9.384370803833008
1712257501588067000,4.358067138671875,0.361846923828125,-5.780056953430176,-10.045025825500488
1712257501598066000,4.36806591796875,-0.19667625427246094,-5.878722190856934,-10.21750545501709
1712257501608064500,4.378064453125,-0.48450183868408203,-5.8198347091674805,-9.964384078979492
1712257501618063400,4.3880634765625,-0.5484409332275391,-5.4870734214782715,-9.498174667358398
1712257501628062200,4.398062255859375,-0.5374717712402344,-4.851642608642578,-8.898683547973633
1712257501638060800,4.408060791015625,-0.5858669281005859,-4.539712905883789,-8.351637840270996
1712257501648059600,4.4180595703125,-0.906580924987793,-4.264741897583008,-7.640295505523682
1712257501658058500,4.42805859375,-0.9169921875,-3.6396429538726807,-6.606082439422607
1712257501668057000,4.43805712890625,-0.5281667709350586,-2.8679914474487305,-5.343798637390137
1712257501678056000,4.448055908203125,-0.11591243743896484,-2.2412781715393066,-4.045965194702148
1712257501688054800,4.4580546875,0.10991287231445312,-1.5758109092712402,-2.6588704586029053
1712257501698053600,4.4680537109375,0.07800006866455078,-0.9869130849838257,-1.581418514251709
1712257501708052500,4.478052490234375,0.2455425262451172,-0.48930299282073975,-0.6920593976974487
1712257501718051300,4.48805126953125,0.22164535522460938,-0.11069166660308838,-0.043442487716674805
1712257501728050200,4.49805029296875,0.08992290496826172,0.1599574089050293,0.4224683344364166
1712257501738049300,4.50804931640625,-0.10452938079833984,0.2695765495300293,0.7422770261764526
1712257501748048100,4.518048095703125,-0.24456787109375,0.33576035499572754,1.0978626012802124
1712257501758047000,4.528046875,0.1128244400024414,0.5845625400543213,1.5705108642578125
1712257501768045800,4.5380458984375,0.5411767959594727,0.895758867263794,2.0699093341827393
1712257501778044700,4.548044677734375,0.6180915832519531,1.0529403686523438,2.527639627456665
1712257501788043500,4.55804345703125,0.39977455139160156,1.02728271484375,2.7477455139160156
1712257501798042400,4.56804248046875,0.3178396224975586,0.8897929191589355,2.52764630317688
1712257501808041000,4.578041015625,0.3390064239501953,0.682715892791748,1.9276081323623657
1712257501818040000,4.5880400390625,0.22156047821044922,0.4884757995605469,1.508490800857544
1712257501828039000,4.598038818359375,-0.14771366119384766,0.3043832778930664,1.3449207544326782
1712257501838037800,4.608037841796875,-0.6409158706665039,0.2829461097717285,1.404388189315796
1712257501848036600,4.61803662109375,-1.0707511901855469,0.38126230239868164,1.676872968673706
1712257501858035500,4.628035400390625,-1.3523321151733398,0.5440642833709717,1.8325186967849731
1712257501868034300,4.638034423828125,-1.5537891387939453,0.6601400375366211,1.999986171722412
1712257501878033200,4.648033203125,-2.7884602546691895,-0.5113860368728638,1.1842880249023438
1712257501888032000,4.658031982421875,-1.4398889541625977,0.5369205474853516,1.7312891483306885
1712257501898030800,4.66803076171875,-0.6594429016113281,1.444185495376587,1.7423440217971802
1712257501908029700,4.67802978515625,0.14965152740478516,1.3435602188110352,1.8692673444747925
1712257501918028500,4.688028564453125,0.5404691696166992,0.7727935314178467,1.7198923826217651
1712257501928027400,4.69802734375,-0.012368202209472656,0.359832763671875,1.017872929573059
1712257501938026200,4.708026123046875,-0.603785514831543,0.08164238929748535,0.3752027153968811
1712257501948025000,4.718025146484375,-0.8736848831176758,-0.0076105594635009766,0.013623088598251343
1712257501958024000,4.72802392578125,-0.814427375793457,0.0527195930480957,-0.05111505091190338
1712257501968022800,4.738022705078125,-0.5196199417114258,0.17281508445739746,0.07861936092376709
1712257501978021600,4.748021728515625,-0.15020465850830078,0.29279589653015137,0.19484634697437286
1712257501988020500,4.7580205078125,0.24601268768310547,0.2948108911514282,0.18925805389881134
1712257501998019000,4.76801904296875,0.7651376724243164,0.2486499547958374,0.1245577484369278
1712257502008018000,4.778017822265625,0.9486122131347656,0.277138352394104,0.052754491567611694
1712257502018016500,4.7880166015625,0.9592208862304688,0.3484032154083252,0.07729470729827881
1712257502028015400,4.798015380859375,0.751368522644043,0.3907320499420166,0.1139632910490036
1712257502038014000,4.808013916015625,0.5163288116455078,0.33603930473327637,0.10133922100067139
1712257502048012800,4.8180126953125,0.4141874313354492,0.3228970766067505,0.047958359122276306
1712257502058011400,4.828011474609375,0.370208740234375,0.32316887378692627,-0.045918434858322144
1712257502068010200,4.83801025390625,0.1826944351196289,0.2726701498031616,-0.1834172010421753
1712257502078008800,4.8480087890625,-0.043392181396484375,0.20660126209259033,-0.24738845229148865
1712257502088007700,4.858007568359375,-0.14283084869384766,0.11326408386230469,-0.19740822911262512
1712257502098006500,4.868006591796875,-0.18509578704833984,0.08673954010009766,-0.13499300181865692
1712257502108005000,4.878005126953125,-0.17285633087158203,0.10423636436462402,-0.125003382563591
1712257502118004000,4.88800390625,0.09945297241210938,0.07128643989562988,-0.037395864725112915
1712257502128002800,4.8980029296875,0.20804595947265625,-0.005072832107543945,0.013824105262756348
1712257502138001400,4.90800146484375,0.2346210479736328,-0.10077083110809326,0.011588215827941895
1712257502148000300,4.918000244140625,0.29209327697753906,-0.16522228717803955,-0.046178460121154785
1712257502157998800,4.927998779296875,0.28046607971191406,-0.13138914108276367,-0.04788631200790405
1712257502167997700,4.937997802734375,0.020830154418945312,-0.05495452880859375,-0.01329261064529419
1712257502177996500,4.94799658203125,-0.2065906524658203,-0.04419136047363281,0.04547703266143799
1712257502187995100,4.9579951171875,-0.23451709747314453,-0.07531416416168213,-0.018388450145721436
1712257502197994000,4.967993896484375,-0.1807842254638672,-0.05689680576324463,-0.04037255048751831
1712257502207992800,4.977992919921875,0.05727195739746094,-0.025938749313354492,-0.0885903537273407
1712257502217991400,4.987991455078125,0.14432144165039062,-0.060898661613464355,-0.15248613059520721
1712257502227990300,4.997990234375,-0.04911327362060547,-0.05874752998352051,-0.11892059445381165
1712257502237989000,5.007989013671875,-0.21201801300048828,0.0002824068069458008,-0.029417604207992554
1712257502247987700,5.01798779296875,-0.18871307373046875,0.07103002071380615,0.0696839988231659
1712257502257986600,5.027986572265625,-0.02450084686279297,0.1319953203201294,0.09777766466140747
1712257502267985200,5.037985107421875,0.10384368896484375,0.12844622135162354,0.12381988763809204
1712257502277984000,5.04798388671875,0.10810279846191406,0.17562079429626465,0.09334558248519897
1712257502287982800,5.05798291015625,-0.0017957687377929688,0.2141408920288086,0.12165385484695435
1712257502297981400,5.0679814453125,-0.09411144256591797,0.15993750095367432,-0.006877630949020386
1712257502307980300,5.077980224609375,-0.15239524841308594,0.06264674663543701,-0.11584669351577759
1712257502317979000,5.087978759765625,-0.12458992004394531,-0.029167532920837402,-0.2112053632736206
1712257502327977700,5.097977783203125,-0.12116146087646484,-0.05399894714355469,-0.28296858072280884
1712257502337976600,5.1079765625,-0.0536651611328125,-0.039968013763427734,-0.29205211997032166
1712257502347975200,5.11797509765625,0.04201221466064453,0.020052313804626465,-0.22957338392734528
1712257502357974000,5.12797412109375,0.051148414611816406,0.12491953372955322,-0.1331242024898529
1712257502367972900,5.137972900390625,0.22283077239990234,0.15931594371795654,-0.08442029356956482
1712257502377971500,5.147971435546875,0.36336421966552734,0.13900220394134521,-0.07585252821445465
1712257502387970300,5.15797021484375,0.2910137176513672,0.1080482006072998,-0.08415587246417999
1712257502397969000,5.167968994140625,0.20218563079833984,0.08488869667053223,-0.07297383248806
1712257502407967700,5.1779677734375,0.14949893951416016,0.11071395874023438,-0.13739734888076782
1712257502417966300,5.18796630859375,0.09964561462402344,0.09372782707214355,-0.20803551375865936
1712257502427965000,5.19796484375,0.016862869262695312,0.023584723472595215,-0.32100874185562134
1712257502437963800,5.2079638671875,-0.09411048889160156,-0.034889936447143555,-0.32221120595932007
1712257502447962600,5.217962646484375,-0.18549633026123047,-0.04273092746734619,-0.26488763093948364
1712257502457961200,5.227961181640625,-0.20019054412841797,-0.03164088726043701,-0.24677790701389313
1712257502467960000,5.2379599609375,-0.1264629364013672,-0.04586338996887207,-0.21784444153308868
1712257502477958700,5.247958740234375,-0.0194854736328125,-0.08733689785003662,-0.19670411944389343
1712257502487957500,5.25795751953125,-0.05667591094970703,-0.09047675132751465,-0.159410297870636
1712257502497956000,5.2679560546875,-0.1282806396484375,-0.013075470924377441,-0.09510192275047302
1712257502507955000,5.277954833984375,-0.13534927368164062,0.06726133823394775,-0.04972761869430542
1712257502517953800,5.287953857421875,-0.10628890991210938,0.08215546607971191,-0.009420737624168396
1712257502527952400,5.297952392578125,-0.13670730590820312,0.08108043670654297,0.03049546480178833
1712257502537951200,5.307951171875,-0.16193485260009766,0.05660879611968994,0.04493233561515808
1712257502547949800,5.31794970703125,-0.13927078247070312,0.01779460906982422,-0.04392367601394653
1712257502557948700,5.32794873046875,-0.0976552963256836,-0.05585193634033203,-0.10456476360559464
1712257502567947500,5.337947509765625,-0.11855125427246094,-0.06601083278656006,-0.13819682598114014
1712257502577946000,5.347946044921875,-0.2068042755126953,-0.06282246112823486,-0.12676936388015747
1712257502587945000,5.357945068359375,-0.22115516662597656,0.02074301242828369,-0.10138459503650665
1712257502597943800,5.36794384765625,-0.08264636993408203,0.07740950584411621,-0.0852883905172348
1712257502607942400,5.3779423828125,0.03645610809326172,0.04687535762786865,-0.1542336344718933
1712257502617941200,5.387941162109375,0.11966419219970703,0.0019562244415283203,-0.16396482288837433
1712257502627940000,5.397940185546875,0.07626152038574219,-0.020414233207702637,-0.17159217596054077
1712257502637938700,5.407938720703125,0.009272575378417969,-0.015851616859436035,-0.17902794480323792
1712257502647937500,5.4179375,-0.023956298828125,-0.022084593772888184,-0.19106003642082214
1712257502657936100,5.42793603515625,-0.03799915313720703,0.014589667320251465,-0.18844100832939148
1712257502667935000,5.43793505859375,-0.08347034454345703,0.022475481033325195,-0.20180055499076843
1712257502677933800,5.447933837890625,-0.057114601135253906,-0.022185921669006348,-0.18396781384944916
1712257502687932400,5.457932373046875,0.05054950714111328,0.010522603988647461,-0.1464361846446991
1712257502697931300,5.46793115234375,0.11509037017822266,0.05802488327026367,-0.0946444645524025
1712257502707930000,5.47793017578125,0.11273670196533203,0.09302353858947754,-0.011068806052207947
1712257502717928700,5.4879287109375,0.13457584381103516,0.10536229610443115,-0.017219945788383484
1712257502727927600,5.497927490234375,0.12064361572265625,0.06915140151977539,-0.04755501449108124
1712257502737926400,5.507926513671875,0.04430198669433594,0.03849589824676514,-0.07211290299892426
1712257502747925500,5.517925537109375,0.022979736328125,0.03202390670776367,-0.10789389908313751
1712257502757924400,5.52792431640625,0.0018186569213867188,0.03442418575286865,-0.10859182476997375
1712257502767923500,5.53792333984375,0.014369964599609375,0.03837311267852783,-0.08667436987161636
1712257502777922300,5.54792236328125,-0.013615608215332031,0.02007424831390381,-0.03777151182293892
1712257502787921400,5.55792138671875,-0.046235084533691406,0.022632718086242676,-0.0906364768743515
1712257502797920500,5.56792041015625,-0.15066051483154297,-0.06831300258636475,-0.08001016080379486
1712257502807919400,5.57791943359375,-0.25549888610839844,-0.08785271644592285,-0.043462567031383514
1712257502817918500,5.58791845703125,-0.26975440979003906,-0.0910344123840332,-0.0406823568046093
1712257502827917600,5.59791748046875,-0.20533084869384766,-0.08294475078582764,0.0015822313725948334
1712257502837916700,5.607916748046875,-0.09340763092041016,-0.04655194282531738,0.10835538804531097
1712257502847915800,5.617915771484375,0.0734720230102539,-0.04542100429534912,0.0964076817035675
1712257502857914600,5.62791455078125,0.16112518310546875,-0.11262083053588867,-0.012766323983669281
1712257502867913700,5.637913818359375,0.14072322845458984,-0.19746088981628418,-0.13455036282539368
1712257502877912800,5.647912841796875,0.0720672607421875,-0.2518312931060791,-0.16367468237876892
1712257502887912000,5.657911865234375,0.007955551147460938,-0.1924532651901245,-0.18604017794132233
1712257502897911000,5.6679111328125,-0.05837440490722656,-0.06685483455657959,-0.13124746084213257
1712257502907910000,5.677909912109375,-0.18877887725830078,0.08468031883239746,-0.009990135207772255
1712257502917909000,5.687908935546875,-0.31609249114990234,0.21838462352752686,0.07497487217187881
1712257502927908000,5.697908203125,-0.3876609802246094,0.3487057685852051,0.13088081777095795
1712257502937907200,5.7079072265625,-0.4392080307006836,0.472326397895813,0.13968627154827118
1712257502947906300,5.71790625,-0.4869813919067383,0.44066953659057617,0.08372684568166733
1712257502957905200,5.7279052734375,-0.4737739562988281,0.3101766109466553,-0.018891893327236176
1712257502967904300,5.737904296875,-0.37866973876953125,0.08888185024261475,-0.1579829752445221
1712257502977903400,5.7479033203125,-0.22914600372314453,-0.13626909255981445,-0.28136205673217773
1712257502987902500,5.75790234375,0.0022344589233398438,-0.3092538118362427,-0.355813592672348
1712257502997901600,5.767901611328125,0.22609424591064453,-0.3201587200164795,-0.27643370628356934
1712257503007900400,5.777900390625,0.3468942642211914,-0.24672162532806396,-0.09456439316272736
1712257503017899500,5.7878994140625,0.3409996032714844,-0.12157154083251953,0.11970892548561096
1712257503027898600,5.797898681640625,0.30889320373535156,-0.018589496612548828,0.25942081212997437
1712257503037897500,5.8078974609375,0.3031320571899414,0.0364532470703125,0.28325846791267395
1712257503047896300,5.817896240234375,0.30934715270996094,0.06993687152862549,0.25998562574386597
1712257503057895200,5.827895263671875,0.33002758026123047,0.06941080093383789,0.17220869660377502
1712257503067894000,5.83789404296875,0.33899497985839844,0.0700153112411499,0.09433664381504059
1712257503077892900,5.847892822265625,0.2380352020263672,0.07915103435516357,0.027072863653302193
1712257503087891500,5.857891357421875,0.11588478088378906,0.03622901439666748,0.025351298972964287
1712257503097890300,5.867890380859375,-0.017892837524414062,0.02273714542388916,-0.000024477019906044006
1712257503107889200,5.87788916015625,-0.12990379333496094,-0.008580207824707031,-0.006569733843207359
1712257503117887700,5.8878876953125,-0.21317386627197266,-0.05909407138824463,-0.06813004612922668
1712257503127886600,5.897886474609375,-0.26782798767089844,-0.144942045211792,-0.09849245101213455
1712257503137885200,5.90788525390625,-0.32776832580566406,-0.2043900489807129,-0.17715732753276825
1712257503147883800,5.9178837890625,-0.34497642517089844,-0.24288511276245117,-0.1869816929101944
1712257503157882600,5.927882568359375,-0.40209484100341797,-0.2996523380279541,-0.19194866716861725
1712257503167881200,5.937881103515625,-0.42102718353271484,-0.2887684106826782,-0.1613357961177826
1712257503177880000,5.947880126953125,-0.4138641357421875,-0.28867197036743164,-0.13528335094451904
1712257503187878700,5.957878662109375,-0.2587099075317383,-0.24563467502593994,-0.13319258391857147
1712257503197877500,5.96787744140625,-0.1377086639404297,-0.22819745540618896,-0.21025040745735168
1712257503207876400,5.97787646484375,-0.10102462768554688,-0.22733557224273682,-0.2316923588514328
1712257503217875000,5.987875,-0.10270500183105469,-0.16151773929595947,-0.14299744367599487
1712257503227873800,5.997873779296875,-0.12568950653076172,-0.04899299144744873,-0.08436265587806702
1712257503237872600,6.00787255859375,-0.07892608642578125,0.030859827995300293,-0.05397665500640869
1712257503247871200,6.017871337890625,-0.08019828796386719,0.058823466300964355,-0.06345555186271667
1712257503257870000,6.0278701171875,-0.06751632690429688,0.04099130630493164,-0.08463643491268158
1712257503267868700,6.03786865234375,-0.00495147705078125,0.0012557506561279297,-0.08492095023393631
1712257503277867500,6.047867431640625,0.052776336669921875,0.024097919464111328,-0.05446874722838402
1712257503287866400,6.057866455078125,0.16090965270996094,0.020014047622680664,0.04463708773255348
1712257503297865000,6.067864990234375,0.2883796691894531,0.06293952465057373,0.15900902450084686
1712257503307863800,6.07786376953125,0.3059988021850586,0.11639916896820068,0.22687341272830963
1712257503317862400,6.0878623046875,0.26883697509765625,0.12768936157226562,0.24608634412288666
1712257503327861200,6.097861328125,0.2557716369628906,0.11903834342956543,0.22626163065433502
1712257503337860000,6.107860107421875,0.21639251708984375,0.11266899108886719,0.24874922633171082
1712257503347858700,6.117858642578125,0.2344655990600586,0.1327296495437622,0.230955570936203
1712257503357857500,6.127857421875,0.23796367645263672,0.13240432739257812,0.21700192987918854
1712257503367856400,6.1378564453125,0.20045185089111328,0.09074580669403076,0.2035365253686905
1712257503377855000,6.14785498046875,0.1293773651123047,0.06385147571563721,0.1848055124282837
1712257503387853800,6.157853759765625,0.13751506805419922,0.08869242668151855,0.17001791298389435
1712257503397852400,6.167852294921875,0.18912506103515625,0.12589144706726074,0.2163585126399994
1712257503407851300,6.177851318359375,0.24351215362548828,0.2064039707183838,0.2772755026817322
1712257503417850000,6.18785009765625,0.1763763427734375,0.22853589057922363,0.30521440505981445
1712257503427848700,6.1978486328125,0.095611572265625,0.1867443323135376,0.2973342537879944
1712257503437847600,6.20784765625,-0.01570606231689453,0.1274721622467041,0.17591604590415955
1712257503447846400,6.217846435546875,-0.19861888885498047,0.07178652286529541,0.057283077389001846
1712257503457845000,6.227844970703125,-0.3098020553588867,-0.01436007022857666,-0.029860377311706543
1712257503467843800,6.23784375,-0.28009605407714844,-0.08646321296691895,-0.048426397144794464
1712257503477842700,6.2478427734375,-0.24149799346923828,-0.09508490562438965,-0.05564597249031067
1712257503487841300,6.25784130859375,-0.17212677001953125,-0.05635249614715576,-0.06542854011058807
1712257503497840000,6.267840087890625,-0.10290813446044922,-0.0814744234085083,-0.08069083839654922
1712257503507838700,6.277838623046875,-0.0887918472290039,-0.08252382278442383,-0.09924232959747314
1712257503517837600,6.287837646484375,-0.057811737060546875,-0.08893096446990967,-0.10153307020664215
1712257503527836200,6.297836181640625,-0.07698249816894531,-0.09127092361450195,-0.0879458487033844
1712257503537835000,6.3078349609375,-0.09606647491455078,-0.0988924503326416,-0.06569493561983109
1712257503547833600,6.31783349609375,-0.08877754211425781,-0.09717667102813721,-0.07539594918489456
1712257503557832400,6.32783251953125,-0.076751708984375,-0.0903695821762085,-0.09427095949649811
1712257503567831000,6.3378310546875,-0.01940631866455078,-0.1472606658935547,-0.11238464713096619
1712257503577830000,6.347829833984375,0.07836627960205078,-0.14759600162506104,-0.10114018619060516
1712257503587828500,6.357828369140625,0.09453773498535156,-0.08461117744445801,-0.04631876200437546
1712257503597827300,6.367827392578125,0.050856590270996094,-0.016835451126098633,0.014034293591976166
1712257503607826000,6.377825927734375,0.11502742767333984,0.02644038200378418,0.03408427536487579
1712257503617824800,6.38782470703125,0.1625661849975586,0.03309202194213867,0.0007631629705429077
1712257503627823600,6.39782373046875,0.12651538848876953,-0.01165473461151123,-0.06596052646636963
1712257503637822200,6.407822265625,0.025391578674316406,-0.04197585582733154,-0.1312585473060608
1712257503647821000,6.417821044921875,-0.05625438690185547,-0.07395315170288086,-0.13758960366249084
1712257503657820000,6.42781982421875,-0.08040618896484375,-0.07729923725128174,-0.1355987787246704
1712257503667818500,6.437818603515625,-0.10230255126953125,-0.07981836795806885,-0.10878916829824448
1712257503677817300,6.4478173828125,-0.11253166198730469,-0.09737884998321533,-0.042984575033187866
1712257503687816000,6.45781591796875,-0.10377120971679688,-0.05900454521179199,0.04335705190896988
1712257503697814800,6.467814697265625,-0.09732532501220703,0.009922266006469727,0.10526245087385178
1712257503707813600,6.477813720703125,-0.05948448181152344,0.034035563468933105,0.12006466835737228
1712257503717812200,6.487812255859375,-0.107452392578125,0.0510631799697876,0.11723025143146515
1712257503727811000,6.49781103515625,-0.08572864532470703,0.052195191383361816,0.04059365391731262
1712257503737810000,6.507809814453125,-0.05910491943359375,0.02401101589202881,0.021380789577960968
1712257503747808500,6.51780859375,-0.0660696029663086,0.02021193504333496,0.036682188510894775
1712257503757807400,6.527807373046875,-0.05640697479248047,0.0411221981048584,0.09819814562797546
1712257503767806200,6.53780615234375,-0.034850120544433594,0.10555100440979004,0.10947196930646896
1712257503777804800,6.5478046875,-0.013135910034179688,0.11165440082550049,0.10113580524921417
1712257503787803600,6.5578037109375,0.0686492919921875,0.07107698917388916,0.027401506900787354
1712257503797802200,6.56780224609375,0.07147789001464844,0.0015168190002441406,-0.007335536181926727
1712257503807801000,6.577801025390625,0.06944751739501953,-0.02690577507019043,-0.048337988555431366
1712257503817800000,6.587800048828125,0.07453155517578125,-0.05013453960418701,-0.055111147463321686
1712257503827798800,6.597798828125,0.10589027404785156,-0.01554107666015625,-0.04712934046983719
1712257503837797600,6.607797607421875,0.0749359130859375,-0.011737704277038574,-0.0030965805053710938
1712257503847796500,6.61779638671875,0.06308937072753906,-0.01720726490020752,0.0062856525182724
1712257503857795300,6.62779541015625,0.02965259552001953,-0.022437453269958496,0.03752491623163223
1712257503867794200,6.637794189453125,-0.008551597595214844,0.01052248477935791,0.06143157184123993
1712257503877793300,6.647793212890625,-0.05623340606689453,0.00941157341003418,0.03003331646323204
1712257503887791900,6.6577919921875,-0.06314468383789062,-0.008830070495605469,0.04137340933084488
1712257503897791000,6.667791015625,-0.05335807800292969,-0.0219649076461792,0.028314966708421707
1712257503907789800,6.677789794921875,-0.06045246124267578,-0.003331899642944336,0.020034633576869965
1712257503917788700,6.68778857421875,-0.02688884735107422,-0.02515709400177002,-0.028966277837753296
1712257503927787500,6.69778759765625,0.0640869140625,-0.04433465003967285,-0.020770184695720673
1712257503937786400,6.707786376953125,0.08797645568847656,-0.06327664852142334,-0.02999759465456009
1712257503947785200,6.71778515625,0.06154346466064453,-0.04128861427307129,-0.03195398300886154
1712257503957784000,6.7277841796875,-0.019835472106933594,-0.027090787887573242,-0.037566639482975006
1712257503967783000,6.737782958984375,-0.11554718017578125,-0.024957776069641113,-0.028730347752571106
1712257503977781800,6.74778173828125,-0.1539621353149414,-0.041040778160095215,-0.016270533204078674
1712257503987780600,6.757780517578125,-0.09926986694335938,-0.02694118022918701,0.027185600250959396
1712257503997779500,6.767779541015625,-0.03512096405029297,0.009291887283325195,0.0523369237780571
1712257504007778300,6.7777783203125,0.04583740234375,0.042795658111572266,0.08270195126533508
1712257504017777200,6.787777099609375,0.03603839874267578,0.11811017990112305,0.12095804512500763
1712257504027776000,6.79777587890625,0.000392913818359375,0.12134325504302979,0.09883834421634674
1712257504037774800,6.80777490234375,-0.008616447448730469,0.07988500595092773,0.07699987292289734
1712257504047773700,6.817773681640625,-0.027192115783691406,0.04556739330291748,-0.0043801963329315186
1712257504057772500,6.8277724609375,-0.009934425354003906,0.023707151412963867,-0.0533130019903183
1712257504067771400,6.837771484375,0.019208908081054688,0.004740118980407715,-0.06542078405618668
1712257504077770200,6.847770263671875,0.019555091857910156,0.02206408977508545,-0.05296163260936737
1712257504087769000,6.85776904296875,0.03668689727783203,0.051229000091552734,-0.0018611922860145569
1712257504097768000,6.867767822265625,0.0348052978515625,0.007803916931152344,0.063025563955307
1712257504107766800,6.877766845703125,-0.0460357666015625,0.011965274810791016,0.0577903687953949
1712257504117765600,6.887765625,-0.09803962707519531,0.04908573627471924,0.07132774591445923
1712257504127764500,6.897764404296875,-0.1259593963623047,0.059072256088256836,-0.012228637933731079
1712257504137763000,6.90776318359375,-0.1011505126953125,0.02570497989654541,-0.06199322268366814
1712257504147762000,6.917761962890625,-0.08375167846679688,-0.07104790210723877,-0.12921389937400818
1712257504157760800,6.9277607421875,-0.01891803741455078,-0.11026930809020996,-0.12451902031898499
1712257504167759400,6.93775927734375,-0.08612823486328125,-0.11165964603424072,-0.13791735470294952
1712257504177758000,6.947758056640625,-0.1103668212890625,-0.09797298908233643,-0.09767704457044601
1712257504187756800,6.9577568359375,-0.11782646179199219,-0.09155380725860596,-0.038204796612262726
1712257504197755400,6.96775537109375,-0.13014507293701172,-0.05846822261810303,-0.025517523288726807
1712257504207754200,6.977754150390625,-0.12827110290527344,-0.036435842514038086,-0.0058691129088401794
1712257504217753000,6.987753173828125,-0.06899452209472656,-0.004537701606750488,-0.03228643536567688
1712257504227751700,6.997751708984375,-0.007346153259277344,0.010729551315307617,-0.03494681417942047
1712257504237750500,7.00775048828125,-0.007848739624023438,0.003924369812011719,0.0007316768169403076
1712257504247749000,7.0177490234375,0.010946273803710938,0.06097686290740967,0.05965046212077141
1712257504257748000,7.027748046875,0.044406890869140625,0.11393344402313232,0.07575578987598419
1712257504267746800,7.037746826171875,0.037563323974609375,0.12161445617675781,0.0665806233882904
1712257504277745400,7.047745361328125,0.009415626525878906,0.03701138496398926,0.035807956010103226
1712257504287744300,7.057744140625,-0.05226612091064453,-0.037897706031799316,-0.001402631402015686
1712257504297742800,7.067742919921875,-0.07585334777832031,-0.07571542263031006,-0.08564969897270203
1712257504307741700,7.07774169921875,-0.09961318969726562,-0.09819865226745605,-0.14473924040794373
1712257504317740500,7.087740478515625,-0.13317298889160156,-0.08352410793304443,-0.10893092304468155
1712257504327739100,7.0977392578125,-0.09266281127929688,-0.060823917388916016,-0.005566701292991638
1712257504337738000,7.107738037109375,-0.028299331665039062,-0.04251992702484131,0.014525733888149261
1712257504347736800,7.11773681640625,-0.043084144592285156,-0.03070652484893799,0.05323350429534912
1712257504357735400,7.1277353515625,-0.05072307586669922,0.012453794479370117,0.051318392157554626
1712257504367734300,7.137734375,-0.007951736450195312,0.016582965850830078,0.058694835752248764
1712257504377733000,7.147733154296875,0.054053306579589844,0.034594178199768066,0.05270480364561081
1712257504387731700,7.157731689453125,0.041866302490234375,0.014099955558776855,0.048229850828647614
1712257504397730600,7.16773046875,0.089599609375,0.007645368576049805,-0.01342727243900299
1712257504407729200,7.177729248046875,0.10381793975830078,0.0011904239654541016,-0.03152070939540863
1712257504417728000,7.18772802734375,0.08937263488769531,0.0015655755996704102,-0.025450676679611206
1712257504427726600,7.1977265625,0.03199195861816406,0.025023221969604492,-0.012126199901103973
1712257504437725400,7.207725341796875,-0.06824779510498047,0.05921626091003418,0.030623536556959152
1712257504447724300,7.217724365234375,-0.11804866790771484,0.04710400104522705,0.06444887071847916
1712257504457723000,7.227722900390625,-0.11762714385986328,0.008935689926147461,0.08328026533126831
1712257504467721700,7.2377216796875,-0.11497783660888672,-0.0164334774017334,0.08401735126972198
1712257504477720600,7.247720458984375,-0.08130455017089844,-0.022174477577209473,0.06166728213429451
1712257504487719200,7.25771923828125,-0.08111572265625,-0.0305098295211792,0.0434144102036953
1712257504497718000,7.267718017578125,-0.08097267150878906,-0.007480978965759277,0.04646042734384537
1712257504507716900,7.277716796875,-0.1334972381591797,0.008337020874023438,0.07333872467279434
1712257504517715500,7.287715576171875,-0.13333797454833984,0.007348060607910156,0.06885317713022232
1712257504527714300,7.29771435546875,-0.042311668395996094,-0.007369279861450195,-0.011664718389511108
1712257504537713000,7.307712890625,-0.032876014709472656,-0.04497683048248291,-0.0710311010479927
1712257504547711700,7.317711669921875,-0.009288787841796875,-0.08138811588287354,-0.07531557232141495
1712257504557710300,7.32771044921875,0.0835580825805664,-0.035448431968688965,-0.06453311443328857
1712257504567709200,7.337709228515625,0.09973526000976562,0.013174057006835938,-0.027487874031066895
1712257504577707800,7.347707763671875,0.07536125183105469,0.017899155616760254,-0.031173866242170334
1712257504587706600,7.35770654296875,0.02245807647705078,0.02158522605895996,-0.0026075541973114014
1712257504597705500,7.36770556640625,0.008046150207519531,0.019497036933898926,0.03272810950875282
1712257504607704000,7.3777041015625,0.03924560546875,0.01911616325378418,0.04747326299548149
1712257504617702700,7.38770263671875,0.0729379653930664,0.003776073455810547,0.002715323120355606
1712257504627701500,7.397701416015625,0.0683889389038086,-0.01193392276763916,-0.0521516315639019
1712257504637700000,7.4077001953125,-0.01036834716796875,-0.054015278816223145,-0.03149097040295601
1712257504647699000,7.417698974609375,-0.12508773803710938,-0.01917707920074463,0.021664131432771683
1712257504657697800,7.42769775390625,-0.1296672821044922,0.018036961555480957,0.08453129231929779
1712257504667696400,7.4376962890625,-0.1486520767211914,0.04344213008880615,0.12187479436397552
1712257504677695200,7.4476953125,-0.05517387390136719,0.054799556732177734,0.0880913957953453
1712257504687693800,7.45769384765625,0.007084846496582031,0.004396200180053711,0.05158442258834839
1712257504697692700,7.467692626953125,0.014098167419433594,-0.05702018737792969,-0.022553563117980957
1712257504707691500,7.47769140625,0.013863563537597656,-0.06059300899505615,-0.04775003343820572
1712257504717690400,7.4876904296875,-0.0006275177001953125,-0.0312119722366333,-0.04134542495012283
1712257504727689000,7.49768896484375,-0.0126190185546875,-0.02633357048034668,-0.013303354382514954
1712257504737687800,7.507687744140625,-0.08687019348144531,0.004937291145324707,0.027203939855098724
1712257504747686400,7.517686279296875,-0.1298990249633789,0.004580497741699219,-0.022899966686964035
1712257504757685200,7.527685302734375,-0.10116291046142578,-0.024153590202331543,-0.05312427505850792
1712257504767684000,7.53768408203125,0.018332481384277344,-0.05408132076263428,-0.06616160273551941
1712257504777682700,7.5476826171875,0.089691162109375,-0.03959059715270996,-0.014847002923488617
1712257504787681500,7.557681640625,0.08202934265136719,0.020428776741027832,0.047551002353429794
1712257504797680000,7.56768017578125,0.0746469497680664,0.0597836971282959,0.10910305380821228
1712257504807679000,7.577678955078125,0.05312633514404297,0.09312236309051514,0.13859935104846954
1712257504817677800,7.587677734375,-0.02079296112060547,0.07706737518310547,0.07117116451263428
1712257504827676400,7.597676513671875,-0.13039302825927734,0.01909017562866211,-0.012405239045619965
1712257504837675300,7.60767529296875,-0.11067390441894531,-0.027034997940063477,-0.10911935567855835
1712257504847674000,7.617674072265625,-0.05043601989746094,-0.05538535118103027,-0.16631218791007996
1712257504857672700,7.627672607421875,0.00228118896484375,-0.07473552227020264,-0.15025749802589417
1712257504867671600,7.637671630859375,0.07629776000976562,-0.07594943046569824,-0.11788718402385712
1712257504877670400,7.64767041015625,0.14778804779052734,-0.10516476631164551,-0.07764101773500443
1712257504887669500,7.65766943359375,0.22143936157226562,-0.11876177787780762,-0.09250044822692871
1712257504897668400,7.66766845703125,0.24210262298583984,-0.11628961563110352,-0.08780944347381592
1712257504907667500,7.67766748046875,0.25533580780029297,-0.09806597232818604,-0.0629267767071724
1712257504917666300,7.687666259765625,0.29962825775146484,-0.07943999767303467,0.012234114110469818
1712257504927665400,7.69766552734375,0.29610633850097656,0.0010210275650024414,0.11916026473045349
1712257504937664500,7.70766455078125,0.2401571273803711,0.0920490026473999,0.22850102186203003
1712257504947663400,7.717663330078125,0.11789512634277344,0.1622685194015503,0.22727513313293457
1712257504957662500,7.727662353515625,0.005978584289550781,0.1635913848876953,0.21179378032684326
1712257504967661600,7.73766162109375,-0.13639354705810547,0.16601920127868652,0.1487780660390854
1712257504977660700,7.74766064453125,-0.2925853729248047,0.13681566715240479,0.02984437346458435
1712257504987659800,7.75765966796875,-0.4316282272338867,0.07453620433807373,-0.04946216940879822
1712257504997659000,7.767658935546875,-0.4987802505493164,0.007290005683898926,-0.06666208803653717
1712257505007658000,7.777657958984375,-0.5184841156005859,-0.05032026767730713,-0.09351964294910431
1712257505017657000,7.787656982421875,-0.4335622787475586,-0.005876660346984863,-0.027060076594352722
1712257505027656200,7.79765625,-0.31795406341552734,0.06480860710144043,0.02444331720471382
1712257505037655300,7.8076552734375,-0.20569133758544922,0.07818710803985596,0.05586341395974159
1712257505047654400,7.817654296875,-0.14845848083496094,0.05302023887634277,0.10022716224193573
1712257505057653500,7.827653564453125,-0.10303592681884766,0.026972413063049316,0.10477021336555481
1712257505067652600,7.837652587890625,-0.1723470687866211,0.06934785842895508,0.1449132114648819
1712257505077651700,7.847651611328125,-0.23203277587890625,0.13782262802124023,0.16386085748672485
1712257505087650800,7.85765087890625,-0.22704792022705078,0.1894087791442871,0.08938969671726227
1712257505097650000,7.86764990234375,-0.22699451446533203,0.18906962871551514,0.08652859926223755
1712257505107648800,7.877648681640625,-0.12661457061767578,0.08459997177124023,-0.12697459757328033
1712257505117648100,7.887648193359375,-0.09584522247314453,-0.023714184761047363,-0.1963418573141098
1712257505127647200,7.897647216796875,-0.10347843170166016,-0.1147608757019043,-0.2840679883956909
1712257505137646000,7.90764599609375,-0.03221416473388672,-0.14534449577331543,-0.3595477044582367
1712257505147645200,7.917645263671875,0.08688640594482422,-0.18046915531158447,-0.3066357374191284
1712257505157644300,7.927644287109375,0.22273540496826172,-0.1509026288986206,-0.17639657855033875
1712257505167643400,7.937643310546875,0.29158878326416016,-0.05452108383178711,-0.09014752507209778
1712257505177642200,7.947642333984375,0.2120532989501953,0.029616475105285645,-0.06504742056131363
1712257505187641000,7.95764111328125,0.15863418579101562,0.05048060417175293,-0.05181582272052765
1712257505197640200,7.96764013671875,0.14862442016601562,0.012295246124267578,-0.05016206577420235
1712257505207639000,7.97763916015625,0.17707061767578125,-0.043445706367492676,-0.09657244384288788
1712257505217638000,7.987637939453125,0.20065879821777344,-0.03894245624542236,-0.14180874824523926
1712257505227636500,7.997636474609375,0.15240478515625,-0.0079803466796875,-0.1193414032459259
