time,seconds_elapsed,z,y,x
1712257550286236400,0.087236328125,-0.196807861328125,0.7402807474136353,0.378299355506897
1712257550296238300,0.09723828125,-0.1923503875732422,0.7177191972732544,0.3657204508781433
1712257550306239500,0.107239501953125,-0.12915706634521484,0.7011961936950684,0.2380281388759613
1712257550316239400,0.1172392578125,-0.16079998016357422,0.6184049844741821,0.11037564277648926
1712257550326239000,0.127239013671875,-0.2024860382080078,0.5671796798706055,0.14787915349006653
1712257550336238600,0.137238525390625,-0.14749908447265625,0.5002999305725098,0.19139103591442108
1712257550346238200,0.14723828125,-0.11377239227294922,0.47826242446899414,0.2769918441772461
1712257550356237800,0.15723779296875,-0.03925609588623047,0.413499116897583,0.34420910477638245
1712257550366237400,0.167237548828125,-0.027210235595703125,0.3768279552459717,0.34749966859817505
1712257550376237000,0.177237060546875,0.003627777099609375,0.3352525234222412,0.26878654956817627
1712257550386236700,0.187236572265625,0.01961803436279297,0.2915329933166504,0.21459200978279114
1712257550396236300,0.197236328125,0.03752613067626953,0.2862510681152344,0.2661542296409607
1712257550406236000,0.20723583984375,0.07657432556152344,0.29032397270202637,0.3056619167327881
1712257550416235500,0.217235595703125,0.09147262573242188,0.25494909286499023,0.2469751089811325
1712257550426235100,0.227235107421875,0.13488483428955078,0.23745942115783691,0.1392841935157776
1712257550436234500,0.237234375,0.04892158508300781,0.19155335426330566,0.04691271483898163
1712257550446234000,0.247234130859375,-0.08729171752929688,0.13567495346069336,0.01695391535758972
1712257550456233500,0.2572333984375,-0.1422557830810547,0.18563222885131836,0.04059971868991852
1712257550466232800,0.26723291015625,-0.15665531158447266,0.2171630859375,0.09312617778778076
1712257550476232200,0.277232177734375,-0.18074321746826172,0.2110745906829834,0.14017179608345032
1712257550486231600,0.2872314453125,-0.27077579498291016,0.22134065628051758,0.17162010073661804
1712257550496230700,0.297230712890625,-0.27955150604248047,0.22256779670715332,0.22285324335098267
1712257550506230000,0.30722998046875,-0.24783611297607422,0.21753454208374023,0.22558346390724182
1712257550516229000,0.31722900390625,-0.17338180541992188,0.18538737297058105,0.18101169168949127
1712257550526228200,0.327228271484375,-0.1252593994140625,0.15753912925720215,0.10799020528793335
1712257550536227600,0.3372275390625,-0.07311534881591797,0.1830141544342041,0.10626772046089172
1712257550546226700,0.347226806640625,-0.007130622863769531,0.1769123077392578,0.10931378602981567
1712257550556225800,0.357225830078125,-0.015644073486328125,0.1406562328338623,0.09982487559318542
1712257550566225200,0.36722509765625,0.05929088592529297,0.10087132453918457,0.05361637473106384
1712257550576224300,0.377224365234375,0.06326675415039062,0.08465075492858887,0.06728550791740417
1712257550586223400,0.387223388671875,-0.009331703186035156,0.10897231101989746,0.13115695118904114
1712257550596222200,0.39722216796875,-0.033896446228027344,0.10642552375793457,0.185209721326828
1712257550606221300,0.40722119140625,-0.015161514282226562,0.12238550186157227,0.21179580688476562
1712257550616220200,0.41722021484375,-0.05611991882324219,0.13791871070861816,0.1696745753288269
1712257550626219300,0.42721923828125,-0.030042648315429688,0.11519861221313477,0.11769276857376099
1712257550636218000,0.437218017578125,-0.0016775131225585938,0.08806324005126953,0.11154314875602722
1712257550646217000,0.447217041015625,0.0025720596313476562,0.07589364051818848,0.10833609104156494
1712257550656216000,0.457216064453125,0.021844863891601562,0.11552119255065918,0.11103513836860657
1712257550666215000,0.46721484375,0.012042999267578125,0.11322951316833496,0.12743401527404785
1712257550676213500,0.477213623046875,0.02123546600341797,0.06605744361877441,0.08212265372276306
1712257550686212400,0.48721240234375,-0.03442573547363281,0.03405594825744629,0.034708112478256226
1712257550696211200,0.497211181640625,-0.059248924255371094,0.02703547477722168,0.026379406452178955
1712257550706210000,0.5072099609375,-0.10356521606445312,0.04281759262084961,0.1000133752822876
1712257550716208600,0.517208740234375,-0.05703926086425781,0.052034854888916016,0.10869142413139343
1712257550726207500,0.52720751953125,-0.032273292541503906,0.052587270736694336,0.1527736485004425
1712257550736206000,0.5372060546875,0.006758689880371094,0.027411699295043945,0.11418211460113525
1712257550746205000,0.547204833984375,0.0193634033203125,0.0193631649017334,0.09007519483566284
1712257550756203500,0.55720361328125,-0.020806312561035156,0.03544020652770996,-0.016370773315429688
1712257550766202400,0.567202392578125,-0.05144500732421875,0.05838131904602051,-0.019114792346954346
1712257550776201000,0.577200927734375,0.013779640197753906,0.05191159248352051,-0.01509585976600647
1712257550786199800,0.58719970703125,0.01667022705078125,0.016793489456176758,-0.02402806282043457
1712257550796198400,0.597198486328125,-0.026055335998535156,-0.020418643951416016,-0.036685675382614136
1712257550806197200,0.607197265625,-0.08814144134521484,-0.021097421646118164,0.006709009408950806
1712257550816195800,0.61719580078125,-0.04989433288574219,0.007913589477539062,0.04236125946044922
1712257550826194700,0.627194580078125,-0.004586219787597656,0.0184938907623291,0.050124526023864746
1712257550836193500,0.637193603515625,0.004772186279296875,0.0221710205078125,0.042674720287323
1712257550846192000,0.647192138671875,0.035643577575683594,0.03081965446472168,0.09723207354545593
1712257550856191000,0.65719091796875,0.13361072540283203,0.020380258560180664,0.02811625599861145
1712257550866189600,0.667189453125,0.08796310424804688,-0.016646862030029297,0.009839564561843872
1712257550876188400,0.6771884765625,0.061557769775390625,-0.02800297737121582,-0.030509769916534424
1712257550886187300,0.687187255859375,0.01593017578125,-0.039420127868652344,0.00042173266410827637
1712257550896185900,0.697185791015625,0.0037164688110351562,-0.05035805702209473,-0.0026078224182128906
1712257550906184700,0.707184814453125,0.012781143188476562,-0.05302309989929199,-0.06575527787208557
1712257550916183300,0.717183349609375,0.026366233825683594,-0.0740208625793457,-0.11581066250801086
1712257550926182100,0.72718212890625,0.020613670349121094,-0.06343770027160645,-0.08540916442871094
1712257550936181000,0.737180908203125,0.0053730010986328125,-0.019834280014038086,-0.006209820508956909
1712257550946179600,0.7471796875,-0.06702804565429688,0.04421663284301758,0.029579520225524902
1712257550956178400,0.757178466796875,-0.05046653747558594,0.03751039505004883,0.02641993761062622
1712257550966177300,0.76717724609375,-0.000263214111328125,-0.01743626594543457,-0.015680581331253052
1712257550976175900,0.77717578125,0.03782176971435547,-0.038230180740356445,-0.03663155436515808
1712257550986174700,0.7871748046875,0.03499126434326172,-0.05114126205444336,-0.037727147340774536
1712257550996173600,0.797173583984375,0.08704566955566406,-0.03462052345275879,0.0042871832847595215
1712257551006172200,0.807172119140625,0.08875560760498047,-0.01765918731689453,0.004527658224105835
1712257551016171000,0.8171708984375,0.03783416748046875,-0.04142618179321289,0.006369829177856445
1712257551026169600,0.827169677734375,-0.05847358703613281,-0.015375375747680664,0.006175398826599121
1712257551036168400,0.83716845703125,-0.11374568939208984,0.0427854061126709,0.03783464431762695
1712257551046167300,0.847167236328125,-0.09927177429199219,0.016158580780029297,0.039491474628448486
1712257551056166000,0.857165771484375,-0.034560203552246094,0.013718843460083008,-0.01438865065574646
1712257551066164700,0.867164794921875,-0.029745101928710938,0.030484676361083984,-0.034174710512161255
1712257551076163600,0.87716357421875,-0.036861419677734375,0.05650067329406738,-0.03141942620277405
1712257551086162200,0.887162109375,-0.02945423126220703,0.07698655128479004,-0.013524353504180908
1712257551096161000,0.8971611328125,0.033298492431640625,0.07010459899902344,0.06400412321090698
1712257551106159600,0.90715966796875,0.057926177978515625,0.043637752532958984,0.06331315636634827
1712257551116158500,0.917158447265625,0.05858135223388672,0.015024185180664062,0.033167123794555664
1712257551126157300,0.9271572265625,0.027841567993164062,-0.0055294036865234375,0.008711576461791992
1712257551136156000,0.937156005859375,0.030353546142578125,-0.034737586975097656,-0.02704751491546631
1712257551146154500,0.947154541015625,0.020643234252929688,0.0063817501068115234,0.023761987686157227
1712257551156153300,0.9571533203125,0.013493537902832031,0.03272247314453125,0.0469897985458374
1712257551166152000,0.96715185546875,-0.007747650146484375,-0.0064697265625,0.01174938678741455
1712257551176150800,0.97715087890625,-0.03622245788574219,-0.05513787269592285,-0.02054077386856079
1712257551186149400,0.9871494140625,-0.03391456604003906,-0.06684184074401855,-0.05849507451057434
1712257551196148200,0.997148193359375,-0.04401588439941406,-0.041081905364990234,-0.0860753059387207
1712257551206146800,1.007146728515625,-0.09015941619873047,-0.012607574462890625,-0.057582348585128784
1712257551216145700,1.017145751953125,-0.13613510131835938,0.005608797073364258,-0.06240895390510559
1712257551226144500,1.02714453125,-0.12436676025390625,-0.03464818000793457,-0.03891590237617493
1712257551236143400,1.037143310546875,-0.064727783203125,-0.04355335235595703,0.0027599036693573
1712257551246142000,1.047141845703125,-0.036332130432128906,-0.05182385444641113,0.021836578845977783
1712257551256140800,1.057140869140625,-0.007994651794433594,-0.08131575584411621,0.042735159397125244
1712257551266139400,1.067139404296875,-0.06609725952148438,-0.0954744815826416,0.018044620752334595
1712257551276138200,1.07713818359375,-0.02860736846923828,-0.07794976234436035,0.006116598844528198
1712257551286136800,1.08713671875,0.051751136779785156,-0.04754209518432617,0.006039142608642578
1712257551296135700,1.0971357421875,0.06977558135986328,0.000014543533325195312,-0.008773177862167358
1712257551306134500,1.107134521484375,0.0018215179443359375,0.05139303207397461,-0.03712436556816101
1712257551316133000,1.117133056640625,-0.07020187377929688,0.12378382682800293,-0.026444435119628906
1712257551326132000,1.127132080078125,-0.11747264862060547,0.1259441375732422,0.0012803971767425537
1712257551336130800,1.137130859375,-0.09247112274169922,0.11202597618103027,-0.021368801593780518
1712257551346129400,1.14712939453125,-0.03139019012451172,0.08789777755737305,-0.06550982594490051
1712257551356128300,1.157128173828125,0.06080341339111328,0.05417299270629883,-0.056504637002944946
1712257551366127000,1.167127197265625,0.09292221069335938,0.05471372604370117,-0.03492322564125061
1712257551376125700,1.177125732421875,0.036319732666015625,0.06056714057922363,0.02260252833366394
1712257551386124500,1.18712451171875,-0.039427757263183594,0.052150726318359375,0.05299291014671326
1712257551396123100,1.197123046875,-0.12485599517822266,0.010817527770996094,0.010402172803878784
1712257551406122000,1.2071220703125,-0.1099863052368164,-0.055681705474853516,0.029089272022247314
1712257551416120800,1.217120849609375,-0.019098281860351562,-0.05725264549255371,0.08858847618103027
1712257551426119400,1.227119384765625,0.08800220489501953,-0.05623888969421387,0.16202306747436523
1712257551436118500,1.237118408203125,0.1731853485107422,-0.08215737342834473,0.1711026132106781
1712257551446117400,1.247117431640625,0.15751934051513672,-0.12356162071228027,0.07175815105438232
1712257551456116200,1.2571162109375,0.07935619354248047,-0.14281129837036133,-0.0014582276344299316
1712257551466115300,1.267115234375,0.06804943084716797,-0.11866521835327148,-0.017153382301330566
1712257551476114200,1.2771142578125,0.05673694610595703,-0.08743548393249512,-0.01285940408706665
1712257551486113300,1.28711328125,-0.009518623352050781,-0.05437064170837402,0.01587936282157898
1712257551496112400,1.2971123046875,-0.025275230407714844,-0.0604395866394043,0.04217880964279175
1712257551506111500,1.307111572265625,0.014049530029296875,-0.0904078483581543,-0.010957717895507812
1712257551516110600,1.317110595703125,0.01253509521484375,-0.08395195007324219,-0.015954673290252686
1712257551526109400,1.327109375,-0.019947052001953125,-0.07824254035949707,0.0013218522071838379
1712257551536108500,1.337108642578125,-0.11207008361816406,-0.07346582412719727,-0.009628474712371826
1712257551546107600,1.347107666015625,-0.14190006256103516,-0.04984116554260254,0.004142671823501587
1712257551556106800,1.357106689453125,-0.11902332305908203,-0.06463313102722168,0.0010787546634674072
1712257551566105900,1.36710595703125,-0.0483551025390625,-0.07422828674316406,-0.03082805871963501
1712257551576105000,1.37710498046875,-0.030480384826660156,-0.03561115264892578,-0.04995673894882202
1712257551586104000,1.38710400390625,-0.03405284881591797,-0.0024900436401367188,-0.03634613752365112
1712257551596103200,1.397103271484375,-0.0445098876953125,0.0077364444732666016,-0.04823023080825806
1712257551606102300,1.407102294921875,-0.06912612915039062,0.016993284225463867,-0.013879179954528809
1712257551616101400,1.417101318359375,-0.03371620178222656,0.0064487457275390625,0.020346760749816895
1712257551626100500,1.4271005859375,-0.0031251907348632812,-0.03739142417907715,-0.0010062456130981445
1712257551636099600,1.437099609375,0.041530609130859375,-0.06344318389892578,-0.02138608694076538
1712257551646098700,1.4470986328125,0.05729198455810547,-0.1081380844116211,-0.02655184268951416
1712257551656097800,1.457097900390625,0.1062154769897461,-0.11794447898864746,-0.01690012216567993
1712257551666096600,1.4670966796875,0.19791507720947266,-0.03314995765686035,0.01717546582221985
1712257551676095700,1.477095703125,0.2633380889892578,0.07776355743408203,0.0632440447807312
1712257551686094800,1.4870947265625,0.1664113998413086,0.24443888664245605,0.0821639895439148
1712257551696094000,1.497093994140625,0.03709220886230469,0.3564023971557617,0.042848169803619385
1712257551706093000,1.507093017578125,-0.145904541015625,0.4582023620605469,0.026017725467681885
1712257551716092200,1.517092041015625,-0.3631782531738281,0.5322980880737305,0.006758391857147217
1712257551726091300,1.52709130859375,-0.45905590057373047,0.5092315673828125,-0.020057260990142822
1712257551736090000,1.537090087890625,-0.5298242568969727,0.39362287521362305,-0.03784266114234924
1712257551746089200,1.547089111328125,-0.5804014205932617,0.23554444313049316,-0.008393287658691406
1712257551756088000,1.557088134765625,-0.5954837799072266,0.1055600643157959,-0.04163351655006409
1712257551766087000,1.5670869140625,-0.505946159362793,-0.07189512252807617,-0.004817992448806763
1712257551776085800,1.577085693359375,-0.36650562286376953,-0.200148344039917,0.035582274198532104
1712257551786084600,1.587084716796875,-0.16759967803955078,-0.28168725967407227,0.09715783596038818
1712257551796083200,1.597083251953125,0.06447505950927734,-0.3261892795562744,0.15327084064483643
1712257551806082000,1.60708203125,0.21973133087158203,-0.33912086486816406,0.21877744793891907
1712257551816081000,1.617080810546875,0.44438838958740234,-0.34017276763916016,0.24742165207862854
1712257551826079500,1.62707958984375,0.5756340026855469,-0.3052864074707031,0.21471825242042542
1712257551836078300,1.637078369140625,0.6665172576904297,-0.267040491104126,0.13939249515533447
1712257551846077000,1.647076904296875,0.6143407821655273,-0.21438145637512207,0.04695674777030945
1712257551856075800,1.65707568359375,0.49813270568847656,-0.16889190673828125,-0.03655484318733215
1712257551866074400,1.667074462890625,0.3395423889160156,-0.1380615234375,-0.10229673981666565
1712257551876073200,1.6770732421875,0.24612903594970703,-0.13783645629882812,-0.1768907904624939
1712257551886071800,1.68707177734375,0.10276126861572266,-0.10996508598327637,-0.16428235173225403
1712257551896070700,1.697070556640625,0.02190399169921875,-0.04950857162475586,-0.13560950756072998
1712257551906069500,1.707069580078125,-0.10666179656982422,-0.04726552963256836,-0.14754319190979004
1712257551916068000,1.717068115234375,-0.1871795654296875,-0.02660536766052246,-0.17104265093803406
1712257551926067000,1.72706689453125,-0.3298206329345703,-0.028067827224731445,-0.09848585724830627
1712257551936065800,1.737065673828125,-0.3934659957885742,-0.03194379806518555,-0.07812470197677612
1712257551946064400,1.747064453125,-0.2850341796875,-0.03695273399353027,-0.06727182865142822
1712257551956063200,1.757063232421875,-0.17946910858154297,-0.018312931060791016,-0.06682682037353516
1712257551966062000,1.76706201171875,-0.10294246673583984,-0.03440141677856445,-0.06835287809371948
1712257551976060700,1.777060791015625,-0.04571247100830078,-0.014100313186645508,-0.0454041063785553
1712257551986059500,1.7870595703125,0.009161949157714844,0.010820150375366211,-0.06787598133087158
1712257551996058000,1.79705810546875,-0.012473106384277344,0.06167006492614746,-0.11206257343292236
1712257552006057000,1.807056884765625,-0.02208232879638672,0.09070539474487305,-0.06983646750450134
1712257552016055800,1.817055908203125,0.018342018127441406,0.10886979103088379,-0.04957526922225952
1712257552026054400,1.827054443359375,0.07288837432861328,0.142486572265625,-0.08485937118530273
1712257552036053200,1.83705322265625,0.10404205322265625,0.15316009521484375,-0.10762166976928711
1712257552046052000,1.847052001953125,0.10919761657714844,0.15533900260925293,-0.07322743535041809
1712257552056050700,1.85705078125,0.13625526428222656,0.10831499099731445,-0.046642303466796875
1712257552066049500,1.867049560546875,0.1658000946044922,0.05157947540283203,-0.018867403268814087
1712257552076048400,1.87704833984375,0.13309288024902344,-0.0025768280029296875,-0.023105263710021973
1712257552086047000,1.887046875,0.11701202392578125,-0.0848851203918457,0.0012528598308563232
1712257552096045800,1.8970458984375,0.1363964080810547,-0.08146524429321289,0.005961626768112183
1712257552106044400,1.90704443359375,0.07644462585449219,-0.08378434181213379,-0.0091114342212677
1712257552116043300,1.917043212890625,0.009168624877929688,-0.10707545280456543,0.03569003939628601
1712257552126042000,1.9270419921875,0.025496482849121094,-0.11973738670349121,0.05516761541366577
1712257552136040700,1.937040771484375,0.020053863525390625,-0.16468572616577148,0.03216654062271118
1712257552146039600,1.94703955078125,-0.004824638366699219,-0.17238569259643555,0.027372658252716064
1712257552156038100,1.9570380859375,-0.06101799011230469,-0.1313188076019287,0.08432051539421082
1712257552166037000,1.967037109375,-0.13864707946777344,-0.08800530433654785,0.1349194347858429
1712257552176035600,1.97703564453125,-0.1418781280517578,-0.07380485534667969,0.16704973578453064
1712257552186034400,1.987034423828125,-0.08040332794189453,-0.05950665473937988,0.12336137890815735
1712257552196033300,1.997033203125,-0.06204986572265625,-0.04754018783569336,0.09679195284843445
1712257552206032000,2.007031982421875,-0.07470417022705078,-0.048268795013427734,0.08828601241111755
1712257552216030700,2.01703076171875,-0.12314796447753906,-0.03538846969604492,0.066735178232193
1712257552226029300,2.027029296875,-0.17618083953857422,-0.0019309520721435547,0.041118770837783813
1712257552236028200,2.037028076171875,-0.16912460327148438,0.020856618881225586,0.07120528817176819
1712257552246026800,2.04702685546875,-0.1451740264892578,0.004852771759033203,0.04589581489562988
1712257552256025600,2.057025634765625,-0.1021261215209961,0.010725975036621094,0.032185107469558716
1712257552266024200,2.067024169921875,-0.051822662353515625,0.01866436004638672,0.05212518572807312
1712257552276023000,2.07702294921875,0.032006263732910156,0.009883642196655273,0.06222608685493469
1712257552286021600,2.087021728515625,0.060710906982421875,0.03957486152648926,0.05833858251571655
1712257552296020500,2.0970205078125,0.055937767028808594,0.05453801155090332,0.03137463331222534
1712257552306019300,2.107019287109375,0.0727243423461914,0.01892828941345215,-0.027969419956207275
1712257552316018000,2.117017822265625,0.07738685607910156,-0.004271745681762695,-0.062475621700286865
1712257552326016800,2.127016845703125,0.057994842529296875,0.006331682205200195,-0.05783560872077942
1712257552336015600,2.137015625,0.009904861450195312,0.03824663162231445,-0.06952938437461853
1712257552346014200,2.14701416015625,0.04092884063720703,0.07437252998352051,-0.039814919233322144
1712257552356013000,2.157012939453125,0.021867752075195312,0.006695270538330078,-0.0530659556388855
1712257552366011600,2.16701171875,-0.0045452117919921875,-0.04861307144165039,-0.0888431966304779
1712257552376010500,2.177010498046875,-0.04569816589355469,-0.061994314193725586,-0.12065985798835754
1712257552386009300,2.18700927734375,-0.046413421630859375,-0.00023889541625976562,-0.06056097149848938
1712257552396008000,2.197008056640625,-0.042305946350097656,0.03753805160522461,-0.02965909242630005
1712257552406006800,2.2070068359375,0.005072593688964844,-0.00908803939819336,0.003118962049484253
1712257552416005400,2.21700537109375,0.021289825439453125,-0.060240745544433594,-0.0292414128780365
1712257552426004200,2.227004150390625,0.0014057159423828125,-0.04845595359802246,-0.01799905300140381
1712257552436003000,2.237003173828125,-0.032843589782714844,-0.04873800277709961,-0.006254076957702637
1712257552446001700,2.247001708984375,-0.02155780792236328,-0.04436087608337402,-0.0641528069972992
1712257552456000500,2.25700048828125,-0.024704933166503906,-0.008541345596313477,-0.07193481922149658
1712257552465999400,2.266999267578125,-0.0373382568359375,0.0006103515625,-0.06073027849197388
1712257552475998000,2.276998046875,0.0027933120727539062,0.0022819042205810547,-0.0595017671585083
1712257552485996800,2.286996826171875,0.05502033233642578,-0.041892290115356445,-0.059060096740722656
1712257552495995600,2.29699560546875,0.11441993713378906,-0.030839204788208008,-0.04721513390541077
1712257552505994200,2.306994140625,0.10681438446044922,0.0015728473663330078,0.0055540502071380615
1712257552515993000,2.3169931640625,0.025160789489746094,0.02846550941467285,0.05834648013114929
1712257552525992000,2.326991943359375,-0.025220870971679688,0.02608513832092285,0.05808243155479431
1712257552535990800,2.33699072265625,-0.010961532592773438,0.007119178771972656,0.0019375383853912354
1712257552545990000,2.346989990234375,0.015222549438476562,-0.02116227149963379,-0.0257796049118042
1712257552555988700,2.35698876953125,-0.013636589050292969,-0.006368398666381836,0.013092786073684692
1712257552565987800,2.36698779296875,-0.025496482849121094,-0.001943826675415039,0.046061575412750244
1712257552575986700,2.376986572265625,0.003444671630859375,0.0070683956146240234,0.03245359659194946
1712257552585985800,2.38698583984375,0.03717041015625,-0.0365297794342041,0.016211718320846558
1712257552595985000,2.39698486328125,0.003662109375,-0.03629112243652344,-0.006790459156036377
1712257552605983700,2.406983642578125,-0.0323333740234375,-0.03582262992858887,-0.02420628070831299
1712257552615982800,2.41698291015625,0.02504730224609375,0.0028450489044189453,-0.007493704557418823
1712257552625982000,2.42698193359375,-0.027663230895996094,0.058142662048339844,0.07352125644683838
1712257552635981000,2.43698095703125,0.008479118347167969,0.10770988464355469,0.10098180174827576
1712257552645980000,2.44697998046875,0.006596565246582031,0.10109591484069824,0.0681803822517395
1712257552655979000,2.45697900390625,0.016923904418945312,0.08623600006103516,-0.00024199485778808594
1712257552665978000,2.46697802734375,-0.056308746337890625,0.11087226867675781,-0.031714022159576416
1712257552675977200,2.476977294921875,-0.17213726043701172,0.15000057220458984,0.004715263843536377
1712257552685976300,2.486976318359375,-0.29194164276123047,0.14988422393798828,0.0504889190196991
1712257552695975200,2.49697509765625,-0.3297433853149414,0.10201406478881836,0.04750445485115051
1712257552705974300,2.506974365234375,-0.39377880096435547,0.05889081954956055,-0.06485643982887268
1712257552715973400,2.516973388671875,-0.4148216247558594,-0.03400993347167969,-0.09104380011558533
1712257552725972500,2.526972412109375,-0.3333759307861328,-0.1585853099822998,-0.06636857986450195
1712257552735971600,2.5369716796875,-0.26724815368652344,-0.29348206520080566,-0.047091782093048096
1712257552745970400,2.546970458984375,-0.17628860473632812,-0.3789525032043457,-0.01437428593635559
1712257552755969500,2.556969482421875,-0.022146224975585938,-0.35794878005981445,0.06175932288169861
1712257552765968600,2.56696875,0.15713214874267578,-0.33190178871154785,0.13509604334831238
1712257552775967700,2.5769677734375,0.292388916015625,-0.29231691360473633,0.1793690025806427
1712257552785966800,2.586966796875,0.35530662536621094,-0.27925610542297363,0.12087979912757874
1712257552795965700,2.596965576171875,0.31504249572753906,-0.24390149116516113,0.05218029022216797
1712257552805964800,2.60696484375,0.21263694763183594,-0.19970226287841797,-0.031243711709976196
1712257552815964000,2.6169638671875,0.1513071060180664,-0.09248995780944824,-0.051568567752838135
1712257552825962800,2.626962646484375,0.08678150177001953,0.050104379653930664,-0.04899761080741882
1712257552835961900,2.6369619140625,0.015351295471191406,0.18949604034423828,-0.0362318754196167
1712257552845960700,2.646960693359375,-0.008063316345214844,0.2855064868927002,-0.027143001556396484
1712257552855959600,2.65695947265625,-0.050716400146484375,0.31728100776672363,-0.032649844884872437
1712257552865958400,2.66695849609375,-0.009200096130371094,0.28492140769958496,-0.03908097743988037
1712257552875957000,2.67695703125,-0.024443626403808594,0.24936556816101074,-0.13064846396446228
1712257552885955800,2.686955810546875,-0.13729000091552734,0.21332335472106934,-0.1885940134525299
1712257552895954400,2.696954345703125,-0.2304210662841797,0.1959240436553955,-0.19329839944839478
1712257552905953300,2.706953369140625,-0.25612831115722656,0.16484355926513672,-0.1491115391254425
1712257552915951900,2.716951904296875,-0.20521926879882812,0.14359378814697266,-0.11276707053184509
1712257552925950700,2.72695068359375,-0.0995798110961914,0.14310359954833984,-0.03384336829185486
1712257552935949300,2.73694921875,0.02482318878173828,0.1254894733428955,0.007337003946304321
1712257552945948200,2.7469482421875,0.079376220703125,0.13620257377624512,0.05927395820617676
1712257552955946800,2.75694677734375,0.11458873748779297,0.1335465908050537,0.07895255088806152
1712257552965945600,2.766945556640625,0.05878734588623047,0.08338546752929688,0.07345664501190186
1712257552975944400,2.7769443359375,-0.009028434753417969,0.007310628890991211,0.025986313819885254
1712257552985943000,2.786943115234375,0.008997917175292969,-0.052657127380371094,0.0032184720039367676
1712257552995942000,2.79694189453125,0.09577655792236328,-0.10731029510498047,0.01063963770866394
1712257553005940500,2.8069404296875,0.1912708282470703,-0.16305947303771973,0.07922104001045227
1712257553015939300,2.816939208984375,0.25980377197265625,-0.26393747329711914,0.11059454083442688
1712257553025938000,2.82693798828125,0.28205108642578125,-0.3328683376312256,0.10144490003585815
1712257553035936800,2.836936767578125,0.31764793395996094,-0.2900700569152832,0.09570840001106262
1712257553045935600,2.846935546875,0.2736682891845703,-0.23544025421142578,0.08589881658554077
1712257553055934200,2.856934326171875,0.1841888427734375,-0.23593568801879883,0.026738375425338745
1712257553065933000,2.86693310546875,0.14033889770507812,-0.17968320846557617,0.031017810106277466
1712257553075932000,2.876931884765625,0.08254814147949219,-0.15606451034545898,0.04630020260810852
1712257553085930500,2.886930419921875,-0.04661369323730469,-0.11505413055419922,-0.022675037384033203
1712257553095929300,2.896929443359375,-0.1872568130493164,-0.12179303169250488,-0.05698692798614502
1712257553105928000,2.906927978515625,-0.26523780822753906,-0.12792348861694336,-0.05017131567001343
1712257553115926800,2.9169267578125,-0.2759084701538086,-0.11669135093688965,-0.021273165941238403
1712257553125925600,2.926925537109375,-0.2580604553222656,-0.08774471282958984,0.021753013134002686
1712257553135924200,2.93692431640625,-0.2188854217529297,-0.024311542510986328,0.07902109622955322
1712257553145923000,2.946923095703125,-0.16075897216796875,-0.0032966136932373047,0.16830450296401978
1712257553155922000,2.956921875,-0.1962289810180664,0.05195021629333496,0.15094706416130066
1712257553165920500,2.96692041015625,-0.1600322723388672,0.09319829940795898,0.15911126136779785
1712257553175919400,2.97691943359375,-0.0713348388671875,0.129608154296875,0.22369372844696045
1712257553185918000,2.98691796875,-0.020430564880371094,0.17625951766967773,0.33168825507164
1712257553195916800,2.996916748046875,0.06695270538330078,0.185133695602417,0.3726672828197479
1712257553205915600,3.00691552734375,0.1571826934814453,0.22620487213134766,0.41114938259124756
1712257553215914200,3.016914306640625,0.3219614028930664,0.2569692134857178,0.37519511580467224
1712257553225913000,3.0269130859375,0.5323667526245117,0.05756878852844238,-0.008559465408325195
1712257553235912000,3.036911865234375,0.46445751190185547,0.09859204292297363,0.05971783399581909
1712257553245910500,3.04691064453125,0.2249307632446289,0.416553258895874,0.2790498733520508
1712257553255909400,3.056909423828125,0.08396625518798828,0.7034807205200195,0.5925488471984863
1712257553265908200,3.066908203125,0.05650520324707031,0.6811397075653076,0.917948305606842
1712257553275906800,3.07690673828125,0.4049491882324219,0.30738067626953125,0.7099400758743286
1712257553285905700,3.08690576171875,0.2653684616088867,0.4853670597076416,0.7793346047401428
1712257553295904300,3.096904296875,-0.026040077209472656,0.8387296199798584,0.5931966304779053
1712257553305903000,3.106903076171875,-0.11232376098632812,1.3333673477172852,1.8859281539916992
1712257553315901700,3.116901611328125,-0.6944875717163086,2.471057891845703,4.0697503089904785
1712257553325900500,3.126900634765625,-0.8367490768432617,2.4909629821777344,3.740619421005249
1712257553335899100,3.136899169921875,-0.8332719802856445,1.7413828372955322,3.809246778488159
1712257553345898000,3.14689794921875,0.29230594635009766,1.523411512374878,3.618588447570801
1712257553355896600,3.156896484375,0.36708736419677734,1.3198668956756592,3.480672836303711
1712257553365895400,3.1668955078125,0.27723217010498047,1.554062843322754,3.5852627754211426
1712257553375894000,3.17689404296875,0.16885948181152344,1.7800428867340088,3.839738130569458
1712257553385892900,3.186892822265625,-0.0337066650390625,1.7172012329101562,3.9443840980529785
1712257553395891500,3.196891357421875,-0.3609142303466797,1.8710601329803467,3.9654951095581055
1712257553405890300,3.206890380859375,-0.4575796127319336,1.9535012245178223,3.911569356918335
1712257553415889000,3.216888916015625,-0.4918804168701172,1.926786184310913,3.9139509201049805
1712257553425887700,3.2268876953125,-0.5241413116455078,1.8985211849212646,3.841050148010254
1712257553435886600,3.236886474609375,-0.5183744430541992,1.689014196395874,3.6802568435668945
1712257553445885200,3.24688525390625,-0.5486478805541992,1.352961778640747,3.3869717121124268
1712257553455884000,3.256884033203125,-0.7440280914306641,0.875084400177002,2.930495262145996
1712257553465883000,3.2668828125,-1.0488824844360352,0.4439636468887329,2.480079412460327
1712257553475881500,3.276881591796875,-1.314239501953125,0.03167998790740967,2.1107301712036133
1712257553485880300,3.28688037109375,-1.4476242065429688,-0.2702615261077881,1.9336062669754028
1712257553495879200,3.296879150390625,-1.178915023803711,-0.4490056037902832,1.8088525533676147
1712257553505877800,3.306877685546875,-0.6498088836669922,-0.5958129167556763,1.7263038158416748
1712257553515876600,3.316876708984375,-0.5237808227539062,-0.9185522198677063,1.566374659538269
1712257553525875200,3.326875244140625,-0.6591825485229492,-1.262081265449524,1.1520671844482422
1712257553535874000,3.3368740234375,-0.46704959869384766,-1.645180583000183,0.5897690057754517
1712257553545873000,3.346872802734375,0.07144641876220703,-2.1167545318603516,-0.13984929025173187
1712257553555871500,3.35687158203125,0.628692626953125,-2.6092915534973145,-0.9942320585250854
1712257553565870300,3.366870361328125,1.215066909790039,-3.0046958923339844,-1.821914792060852
1712257553575869200,3.376869140625,1.5149726867675781,-3.4059128761291504,-2.6839115619659424
1712257553585867800,3.38686767578125,1.210301399230957,-3.9367382526397705,-3.50168776512146
1712257553595866600,3.39686669921875,0.7202186584472656,-4.354000091552734,-4.209745407104492
1712257553605865500,3.406865478515625,0.3534526824951172,-4.674537181854248,-4.808692932128906
1712257553615864000,3.416864013671875,0.3468751907348633,-4.908365249633789,-5.383732318878174
1712257553625863000,3.42686279296875,0.8056230545043945,-5.168370723724365,-5.94777774810791
1712257553635861800,3.43686181640625,1.3925809860229492,-5.374902725219727,-6.37937068939209
1712257553645860900,3.44686083984375,1.8363571166992188,-5.519455432891846,-6.618075847625732
1712257553655859700,3.456859619140625,1.8310823440551758,-5.72857141494751,-6.719545364379883
1712257553665858600,3.466858642578125,1.3227901458740234,-6.034735679626465,-6.853968620300293
1712257553675857400,3.476857421875,0.6083345413208008,-6.261973857879639,-7.311834812164307
1712257553685856300,3.486856201171875,0.14770126342773438,-6.341188907623291,-7.96388578414917
1712257553695855400,3.49685546875,0.23203086853027344,-6.373805046081543,-8.61733627319336
1712257553705854200,3.506854248046875,0.9577236175537109,-6.44691801071167,-9.150321006774902
1712257553715853000,3.51685302734375,1.4523200988769531,-6.6227803230285645,-9.373833656311035
1712257553725852000,3.526851806640625,1.6677684783935547,-7.078843116760254,-9.316526412963867
1712257553735850800,3.536850830078125,1.923440933227539,-7.384031772613525,-8.918813705444336
1712257553745849600,3.546849609375,2.3008384704589844,-7.44484806060791,-8.27033805847168
1712257553755848400,3.556848388671875,2.6844615936279297,-7.3465800285339355,-7.523895740509033
1712257553765847300,3.566847412109375,2.597378730773926,-7.1808977127075195,-6.705999851226807
1712257553775846100,3.57684619140625,2.1108837127685547,-7.049443244934082,-6.01359224319458
1712257553785845000,3.586844970703125,1.5501041412353516,-7.053379058837891,-5.353370189666748
1712257553795843800,3.59684375,0.9380550384521484,-7.006112098693848,-4.6329874992370605
1712257553805842700,3.6068427734375,0.5828161239624023,-6.8314714431762695,-3.7510013580322266
1712257553815841500,3.616841552734375,0.5058088302612305,-6.489567756652832,-2.648183584213257
1712257553825840400,3.62684033203125,0.48747825622558594,-6.009392261505127,-1.2367740869522095
1712257553835839200,3.636839111328125,0.45502471923828125,-5.44766902923584,0.10171447694301605
1712257553845838000,3.646838134765625,0.33533477783203125,-4.7783308029174805,1.433609962463379
1712257553855837000,3.6568369140625,0.08115482330322266,-4.061654090881348,2.5941712856292725
1712257553865835800,3.666835693359375,-0.16210365295410156,-3.287425994873047,3.772322177886963
1712257553875834600,3.676834716796875,0.071624755859375,-2.442016363143921,5.044156074523926
1712257553885833500,3.68683349609375,0.45346832275390625,-1.490321397781372,6.383049964904785
1712257553895832300,3.696832275390625,0.6001262664794922,-0.6125513315200806,7.295523166656494
1712257553905831200,3.7068310546875,0.4442729949951172,0.22387957572937012,8.068585395812988
1712257553915830000,3.716830078125,0.026395797729492188,0.9463119506835938,8.526567459106445
1712257553925828900,3.726828857421875,-0.5220041275024414,1.4735305309295654,8.60495376586914
1712257553935827500,3.736827392578125,-1.1243839263916016,1.7542800903320312,8.535326957702637
1712257553945826300,3.746826416015625,-1.6563544273376465,1.8316526412963867,8.62048625946045
1712257553955825000,3.756824951171875,-1.8161978721618652,1.9230821132659912,8.956052780151367
1712257553965823700,3.76682373046875,-1.6711030006408691,2.1320652961730957,9.359798431396484
1712257553975822300,3.776822265625,-1.2218589782714844,2.517836093902588,9.744331359863281
1712257553985821200,3.7868212890625,-0.8392438888549805,2.9560720920562744,10.159679412841797
1712257553995819800,3.79681982421875,-0.8461151123046875,3.2911343574523926,10.513542175292969
1712257554005818400,3.806818359375,-1.1030197143554688,3.543750286102295,10.799357414245605
1712257554015817200,3.816817138671875,-1.3151636123657227,3.667248010635376,10.735274314880371
1712257554025815800,3.82681591796875,-1.4757194519042969,3.6033754348754883,10.37000560760498
1712257554035814700,3.836814697265625,-1.5759973526000977,3.3248162269592285,10.005594253540039
1712257554045813500,3.8468134765625,-1.4612703323364258,3.041374921798706,9.703385353088379
1712257554055812000,3.85681201171875,-1.2278423309326172,2.853375196456909,9.41940689086914
1712257554065811000,3.86681103515625,-1.0889263153076172,2.665235996246338,9.060235977172852
1712257554075809800,3.876809814453125,-1.1498136520385742,2.452402353286743,8.716832160949707
1712257554085808600,3.88680859375,-1.2765655517578125,2.287161350250244,8.598730087280273
1712257554095807200,3.89680712890625,-1.3520116806030273,2.2448155879974365,8.679739952087402
1712257554105806000,3.90680615234375,-1.2615604400634766,2.0735859870910645,8.648510932922363
1712257554115804700,3.9168046875,-1.0532941818237305,1.6552109718322754,8.414506912231445
1712257554125803500,3.926803466796875,-0.7822628021240234,1.076286792755127,7.951211929321289
1712257554135802400,3.93680224609375,-0.5604124069213867,0.5190627574920654,7.42274284362793
1712257554145801000,3.946801025390625,-0.15726852416992188,0.08144187927246094,6.633683204650879
1712257554155799800,3.9567998046875,0.20482254028320312,-0.4413743019104004,5.701869487762451
1712257554165798700,3.966798583984375,0.20064258575439453,-0.878964900970459,4.858808517456055
1712257554175797200,3.97679736328125,0.18264102935791016,-1.3201231956481934,3.981064558029175
1712257554185796000,3.986796142578125,0.46746349334716797,-1.8182142972946167,2.989957332611084
1712257554195795000,3.996794921875,0.9521389007568359,-2.5142860412597656,2.023940086364746
1712257554205793500,4.00679345703125,1.5408353805541992,-3.1021547317504883,1.0746541023254395
1712257554215792400,4.01679248046875,2.1524600982666016,-3.6848196983337402,0.17885056138038635
1712257554225791000,4.026791015625,2.652158737182617,-4.203185081481934,-0.6335574388504028
1712257554235937300,4.036937255859375,2.7751569747924805,-4.642634868621826,-1.4005645513534546
1712257554245935900,4.046935791015625,2.1886377334594727,-4.998785495758057,-2.0971264839172363
1712257554255934700,4.056934814453125,1.2582483291625977,-5.2551589012146,-2.941545009613037
1712257554265933300,4.066933349609375,0.6745758056640625,-5.349607944488525,-3.6091206073760986
1712257554275932200,4.07693212890625,0.27527332305908203,-5.59116792678833,-4.21823263168335
1712257554285930800,4.0869306640625,-0.039214134216308594,-6.051481246948242,-4.831160545349121
1712257554295929600,4.0969296875,0.12795257568359375,-6.648777008056641,-5.562427043914795
1712257554305928400,4.106928466796875,0.7764358520507812,-7.101233959197998,-6.519529342651367
1712257554315927000,4.116927001953125,1.4538631439208984,-7.482027053833008,-7.694671630859375
1712257554325926000,4.12692578125,1.7107057571411133,-7.838167190551758,-8.731221199035645
1712257554335924700,4.1369248046875,1.7583885192871094,-8.159189224243164,-9.607710838317871
1712257554345923300,4.14692333984375,1.619206428527832,-8.36233901977539,-10.244495391845703
1712257554355922000,4.156921875,1.4328231811523438,-8.480073928833008,-10.654340744018555
1712257554365920800,4.166920654296875,1.542038917541504,-8.504751205444336,-10.82452392578125
1712257554375919600,4.176919677734375,1.7648639678955078,-8.498273849487305,-10.690655708312988
1712257554385918200,4.186918212890625,1.8803672790527344,-8.469347953796387,-10.3910493850708
1712257554395916800,4.196916748046875,1.6003503799438477,-8.339676856994629,-9.97407341003418
1712257554405915600,4.20691552734375,1.1998729705810547,-8.050824165344238,-9.726652145385742
1712257554415914200,4.216914306640625,1.1436433792114258,-7.742650508880615,-9.371709823608398
1712257554425913000,4.2269130859375,1.2856407165527344,-7.443394660949707,-8.838728904724121
1712257554435912000,4.236911865234375,1.4630241394042969,-7.15016508102417,-7.988472938537598
1712257554445910500,4.24691064453125,1.5965347290039062,-6.871647357940674,-7.01146936416626
1712257554455909400,4.256909423828125,1.5563039779663086,-6.564986228942871,-5.9053955078125
1712257554465908000,4.266907958984375,1.4052534103393555,-6.214622497558594,-4.805413722991943
1712257554475906800,4.27690673828125,1.1536903381347656,-5.891077995300293,-3.795288324356079
1712257554485905700,4.28690576171875,0.9842557907104492,-5.575791358947754,-2.8381905555725098
1712257554495904300,4.296904296875,0.7871932983398438,-5.2127485275268555,-1.9545162916183472
1712257554505903000,4.306903076171875,0.6726512908935547,-4.981327533721924,-1.3250573873519897
1712257554515902000,4.31690185546875,0.7456769943237305,-4.8149800300598145,-0.6371153593063354
1712257554525900500,4.326900634765625,0.8766660690307617,-4.594414234161377,0.26694732904434204
1712257554535899400,4.3368994140625,0.8694190979003906,-4.310930252075195,1.0520598888397217
1712257554545898000,4.34689794921875,0.5682525634765625,-3.907590866088867,1.638913631439209
1712257554555896800,4.356896728515625,0.14997196197509766,-3.3021457195281982,2.5773372650146484
1712257554565895700,4.366895751953125,-0.039348602294921875,-2.6091933250427246,3.83952260017395
1712257554575894300,4.376894287109375,0.054694175720214844,-1.8945679664611816,5.146014213562012
1712257554585893000,4.38689306640625,0.3485221862792969,-1.0990674495697021,6.341650009155273
1712257554595892000,4.39689208984375,0.4503030776977539,-0.263031005859375,7.340869903564453
1712257554605890600,4.406890625,0.1644115447998047,0.4692491292953491,7.8376874923706055
1712257554615889400,4.416889404296875,-0.1763925552368164,0.9881073236465454,8.199724197387695
1712257554625888000,4.426887939453125,-0.47931957244873047,1.3421645164489746,8.527124404907227
1712257554635886800,4.436886962890625,-0.8975839614868164,1.5595405101776123,8.508249282836914
1712257554645885700,4.4468857421875,-1.363570213317871,1.6885762214660645,8.348611831665039
1712257554655884300,4.45688427734375,-1.6422157287597656,1.7817853689193726,8.288290977478027
1712257554665883100,4.466883056640625,-1.64473295211792,1.8879538774490356,8.243109703063965
1712257554675882000,4.476882080078125,-1.4500694274902344,2.029139995574951,8.410040855407715
1712257554685881000,4.486881103515625,-1.3715333938598633,2.3045730590820312,8.619641304016113
1712257554695880000,4.4968798828125,-1.3961076736450195,2.654425621032715,8.892252922058105
1712257554705879000,4.506879150390625,-1.580103874206543,3.0606746673583984,9.101283073425293
1712257554715878000,4.5168779296875,-1.876652717590332,3.3281021118164062,9.370116233825684
1712257554725877000,4.526876953125,-2.066572666168213,3.542322874069214,9.41025161743164
1712257554735876000,4.5368759765625,-1.971242904663086,3.568570613861084,9.292061805725098
1712257554745875200,4.546875244140625,-1.868941307067871,3.3567004203796387,9.082412719726562
1712257554755874300,4.556874267578125,-1.7066664695739746,2.9919795989990234,8.771981239318848
1712257554765873400,4.566873291015625,-1.5437088012695312,2.688218355178833,8.666738510131836
1712257554775872300,4.576872314453125,-1.2021713256835938,2.5224320888519287,8.4561185836792
1712257554785871400,4.586871337890625,-0.7870683670043945,2.454956293106079,8.080094337463379
1712257554795870500,4.596870361328125,-0.4711160659790039,2.3186891078948975,7.574156761169434
1712257554805869600,4.60686962890625,-0.6899795532226562,2.112423896789551,7.288305282592773
1712257554815868700,4.61686865234375,-0.88958740234375,1.8339165449142456,7.0603179931640625
1712257554825867800,4.62686767578125,-0.6715574264526367,1.4903018474578857,6.504185199737549
1712257554835867000,4.636866943359375,-0.30657005310058594,0.9662009477615356,5.765018463134766
1712257554845866000,4.646865966796875,-0.07757568359375,0.31315553188323975,4.7599568367004395
1712257554855865000,4.656864990234375,0.07040119171142578,-0.4558018445968628,3.673135995864868
1712257554865864200,4.6668642578125,0.2978353500366211,-1.2436023950576782,2.462803602218628
1712257554875863300,4.67686328125,0.7199687957763672,-1.9504013061523438,1.281391978263855
1712257554885862400,4.6868623046875,1.373459815979004,-2.638843059539795,0.04777967929840088
1712257554895861500,4.696861572265625,1.9689178466796875,-3.2878799438476562,-1.279958963394165
1712257554905860600,4.706860595703125,2.5708703994750977,-4.023536205291748,-2.7840747833251953
1712257554915859500,4.716859375,2.809384346008301,-4.8449249267578125,-4.187792778015137
1712257554925858600,4.726858642578125,2.6763734817504883,-5.720830917358398,-5.574049949645996
1712257554935857700,4.736857666015625,2.5690250396728516,-6.243206024169922,-6.873652458190918
1712257554945856800,4.746856689453125,2.739990234375,-6.526383399963379,-8.334625244140625
1712257554955856000,4.75685595703125,2.957998275756836,-6.818106174468994,-9.884283065795898
1712257554965855000,4.76685498046875,3.193634033203125,-7.281074523925781,-11.47970962524414
1712257554975853800,4.776853759765625,3.3918962478637695,-7.800406455993652,-12.705671310424805
1712257554985853000,4.78685302734375,3.082284927368164,-8.148565292358398,-12.674365997314453
1712257554995851500,4.7968515625,2.7861814498901367,-7.905421733856201,-11.506896018981934
1712257555005850600,4.8068505859375,2.2855329513549805,-7.019729137420654,-9.824854850769043
1712257555015849500,4.816849365234375,1.3504981994628906,-5.790825366973877,-8.150301933288574
1712257555025848000,4.82684814453125,0.5069799423217773,-4.54224967956543,-6.511427879333496
1712257555035847000,4.836846923828125,0.008031845092773438,-3.4203991889953613,-4.84178352355957
1712257555045845800,4.846845703125,-0.11694908142089844,-2.357008457183838,-3.2587828636169434
1712257555055844400,4.85684423828125,-0.06372642517089844,-1.6371548175811768,-2.251893997192383
1712257555065843200,4.86684326171875,-0.38051795959472656,-1.1445534229278564,-1.6082866191864014
1712257555075841800,4.876841796875,-0.9651098251342773,-0.7974793910980225,-1.1328866481781006
1712257555085840600,4.886840576171875,-1.1812753677368164,-0.5580142736434937,-0.76471346616745
1712257555095839200,4.896839111328125,-0.9793987274169922,-0.34224796295166016,-0.48341912031173706
1712257555105838000,4.906838134765625,-0.6355466842651367,-0.08796155452728271,-0.17294573783874512
1712257555115837000,4.9168369140625,-0.4119758605957031,0.20348644256591797,0.4998728036880493
1712257555125835500,4.92683544921875,-0.26085853576660156,0.5832937955856323,1.418502926826477
1712257555135834400,4.93683447265625,-0.17444419860839844,1.0433988571166992,2.2192370891571045
1712257555145833000,4.9468330078125,-0.20220947265625,1.5670431852340698,2.923692226409912
1712257555155831800,4.956831787109375,-0.3399515151977539,1.928917407989502,3.4925661087036133
1712257555165830700,4.96683056640625,-0.29585742950439453,2.1141529083251953,3.738936424255371
1712257555175829200,4.976829345703125,-0.11030769348144531,2.0964622497558594,3.629443645477295
1712257555185828000,4.986828125,0.12152862548828125,1.9040977954864502,3.145030975341797
1712257555195827000,4.996826904296875,0.1666393280029297,1.5354636907577515,2.567861557006836
1712257555205825500,5.006825439453125,0.02809429168701172,1.2062684297561646,2.248448371887207
1712257555215824400,5.016824462890625,-0.1307840347290039,0.985929012298584,1.9463701248168945
1712257555225823000,5.026822998046875,-0.22115612030029297,0.8562833070755005,1.660840392112732
1712257555235821800,5.03682177734375,-0.17821407318115234,0.7699854373931885,1.440136432647705
1712257555245820700,5.046820556640625,-0.15285778045654297,0.69390869140625,1.2313355207443237
1712257555255819300,5.0568193359375,-0.33980464935302734,0.6176611185073853,1.1407437324523926
1712257555265818000,5.066818115234375,-0.5290031433105469,0.564054012298584,1.1425013542175293
1712257555275816700,5.076816650390625,-0.6222915649414062,0.5320262908935547,1.1316696405410767
1712257555285815600,5.086815673828125,-0.5501089096069336,0.500560998916626,0.9340053796768188
1712257555295814400,5.096814453125,-0.32491588592529297,0.4045288562774658,0.8253532648086548
1712257555305813000,5.10681298828125,-0.23220348358154297,0.28851962089538574,0.7068945169448853
1712257555315811800,5.116811767578125,-0.2408733367919922,0.22064852714538574,0.43967342376708984
1712257555325810700,5.126810791015625,-0.3220529556274414,0.1781919002532959,0.09161627292633057
1712257555335809300,5.136809326171875,-0.3224945068359375,0.07279348373413086,-0.08391213417053223
1712257555345808100,5.14680810546875,-0.25360774993896484,0.026297569274902344,-0.2872326970100403
1712257555355807000,5.156806884765625,-0.17724132537841797,0.0019168853759765625,-0.5655942559242249
1712257555365805600,5.1668056640625,-0.05247974395751953,-0.04217123985290527,-0.7320587038993835
1712257555375804400,5.176804443359375,-0.010729789733886719,-0.08506202697753906,-0.61298668384552
1712257555385803000,5.186802978515625,-0.04470062255859375,-0.02674126625061035,-0.3447880744934082
1712257555395801900,5.1968017578125,0.0033206939697265625,0.1405777931213379,-0.19413882493972778
1712257555405800400,5.206800537109375,0.13518238067626953,0.21517372131347656,-0.19816440343856812
1712257555415799300,5.21679931640625,0.28867149353027344,0.1989285945892334,-0.20298928022384644
1712257555425798100,5.226798095703125,0.3773622512817383,0.1276085376739502,-0.21366757154464722
1712257555435796700,5.236796630859375,0.360260009765625,0.07259821891784668,-0.24378299713134766
1712257555445795600,5.246795654296875,0.18955612182617188,0.0025413036346435547,-0.37251096963882446
1712257555455794200,5.256794189453125,0.10223674774169922,-0.06739282608032227,-0.5410846471786499
1712257555465792800,5.266792724609375,0.10802364349365234,-0.10775041580200195,-0.61549973487854
1712257555475791600,5.27679150390625,0.041889190673828125,-0.11130285263061523,-0.6332608461380005
1712257555485790500,5.28679052734375,-0.021628379821777344,-0.09110736846923828,-0.5709627270698547
1712257555495789000,5.2967890625,0.01595306396484375,-0.04327130317687988,-0.4630555510520935
1712257555505788000,5.306787841796875,-0.024862289428710938,-0.04428505897521973,-0.4277108311653137
1712257555515786500,5.316786376953125,-0.06296825408935547,-0.1082763671875,-0.4173961877822876
1712257555525785300,5.326785400390625,-0.0888967514038086,-0.13418149948120117,-0.40586400032043457
1712257555535784200,5.3367841796875,-0.188751220703125,-0.157728910446167,-0.3319553732872009
1712257555545782800,5.34678271484375,-0.1686697006225586,-0.13065028190612793,-0.24133270978927612
1712257555555781600,5.35678173828125,0.01924610137939453,-0.07626152038574219,-0.17838948965072632
1712257555565780500,5.366780517578125,0.06830310821533203,0.024953842163085938,-0.15872907638549805
1712257555575779000,5.376779052734375,0.001941680908203125,0.06283211708068848,-0.17578542232513428
1712257555585778000,5.38677783203125,-0.008128166198730469,0.062195777893066406,-0.25941789150238037
1712257555595776800,5.39677685546875,-0.096343994140625,-0.004313468933105469,-0.38324058055877686
1712257555605775400,5.406775390625,-0.21218109130859375,-0.08247709274291992,-0.6097815036773682
1712257555615774200,5.416774169921875,-0.2519798278808594,-0.12819719314575195,-0.7192944288253784
1712257555625773000,5.42677294921875,-0.22225189208984375,-0.13295483589172363,-0.6696128845214844
1712257555635771600,5.436771728515625,-0.24726390838623047,-0.03693652153015137,-0.4745957851409912
1712257555645770500,5.4467705078125,-0.3843374252319336,0.08012509346008301,-0.2656482458114624
1712257555655769000,5.45676904296875,-0.4107065200805664,0.22960543632507324,-0.10704874992370605
1712257555665768000,5.466767822265625,-0.2929420471191406,0.2900400161743164,-0.049622535705566406
1712257555675766800,5.476766845703125,-0.18700504302978516,0.26725292205810547,-0.05195176601409912
1712257555685765400,5.486765380859375,-0.14117717742919922,0.2257540225982666,-0.09377062320709229
1712257555695764200,5.49676416015625,-0.07190132141113281,0.15870046615600586,-0.15225672721862793
1712257555705763000,5.50676318359375,-0.04411602020263672,0.08838701248168945,-0.19539588689804077
1712257555715761700,5.51676171875,0.025890350341796875,0.039148569107055664,-0.2687308192253113
1712257555725760500,5.526760498046875,0.06423187255859375,0.0319211483001709,-0.38569700717926025
1712257555735759400,5.53675927734375,0.15249252319335938,-0.055969953536987305,-0.4723692536354065
1712257555745758000,5.546758056640625,0.21201133728027344,-0.09574580192565918,-0.504238486289978
1712257555755756800,5.5567568359375,0.20205116271972656,-0.09930944442749023,-0.4189079999923706
1712257555765755600,5.566755615234375,0.19956111907958984,-0.09152650833129883,-0.413638710975647
1712257555775754500,5.57675439453125,0.3316688537597656,0.08760786056518555,-0.14958548545837402
1712257555785753600,5.586753662109375,0.34009361267089844,0.15938115119934082,-0.060747385025024414
1712257555795752400,5.59675244140625,0.3373899459838867,0.17801737785339355,-0.016384482383728027
1712257555805751600,5.60675146484375,0.26126575469970703,0.1528308391571045,-0.020426511764526367
1712257555815750400,5.61675048828125,0.11861705780029297,0.12265229225158691,-0.07391631603240967
1712257555825749500,5.62674951171875,-0.007452964782714844,0.07742977142333984,-0.09342014789581299
1712257555835748600,5.63674853515625,-0.1722278594970703,0.06900835037231445,-0.09936773777008057
1712257555845747700,5.646747802734375,-0.19371414184570312,0.09263181686401367,-0.11840927600860596
1712257555855746600,5.65674658203125,-0.14365768432617188,0.08405041694641113,-0.11611223220825195
1712257555865745700,5.66674560546875,-0.029169082641601562,0.060245513916015625,-0.07916140556335449
1712257555875744800,5.676744873046875,0.011019706726074219,0.08737707138061523,-0.11232137680053711
1712257555885743600,5.68674365234375,-0.04214286804199219,0.11678528785705566,-0.12869632244110107
1712257555895742700,5.69674267578125,-0.10469245910644531,0.13552141189575195,-0.08459436893463135
1712257555905741800,5.706741943359375,-0.11170005798339844,0.11460399627685547,-0.06095623970031738
1712257555915741000,5.716740966796875,-0.10371780395507812,0.06585884094238281,-0.07790803909301758
1712257555925740000,5.726739990234375,0.01691913604736328,0.06250357627868652,-0.0909109115600586
1712257555935739100,5.7367392578125,0.05597686767578125,0.0934305191040039,-0.06089377403259277
1712257555945738200,5.74673828125,0.030012130737304688,0.15842986106872559,-0.06467998027801514
1712257555955737000,5.756737060546875,0.0013704299926757812,0.19972944259643555,-0.06175649166107178
1712257555965736200,5.766736083984375,-0.03206443786621094,0.20264005661010742,-0.12805229425430298
1712257555975735300,5.7767353515625,-0.06529808044433594,0.13790249824523926,-0.22115039825439453
1712257555985734400,5.786734375,0.014089584350585938,0.06342887878417969,-0.317069947719574
1712257555995733200,5.796733154296875,0.021429061889648438,0.03306746482849121,-0.36051851511001587
1712257556005732400,5.806732421875,0.014525413513183594,0.010725736618041992,-0.3267543315887451
1712257556015731500,5.8167314453125,-0.06265449523925781,0.010476350784301758,-0.2626352906227112
1712257556025730600,5.82673046875,-0.12575149536132812,0.0069086551666259766,-0.2609710097312927
1712257556035729400,5.8367294921875,-0.1482677459716797,-0.04830217361450195,-0.26244884729385376
1712257556045728500,5.846728515625,-0.06580066680908203,-0.06332182884216309,-0.2548368573188782
1712257556055727600,5.8567275390625,0.054589271545410156,-0.07598423957824707,-0.21035420894622803
1712257556065726500,5.8667265625,0.05246162414550781,-0.08405113220214844,-0.19790756702423096
1712257556075725300,5.876725341796875,0.10757064819335938,-0.08376574516296387,-0.1713656783103943
1712257556085724200,5.88672412109375,0.10057926177978516,-0.05681347846984863,-0.17082589864730835
1712257556095723000,5.896722900390625,0.13702106475830078,-0.028071165084838867,-0.1480368971824646
1712257556105721900,5.906721923828125,0.15224647521972656,-0.028723955154418945,-0.19389718770980835
1712257556115720700,5.916720703125,0.1504659652709961,-0.01905679702758789,-0.17423516511917114
1712257556125719300,5.92671923828125,0.09107589721679688,0.0076029300689697266,-0.1462392807006836
1712257556135718100,5.93671826171875,0.015168190002441406,-0.00018334388732910156,-0.12299275398254395
1712257556145716700,5.946716796875,-0.09394168853759766,-0.008997440338134766,-0.0883299708366394
1712257556155715600,5.956715576171875,-0.19799041748046875,0.03429269790649414,-0.0884886384010315
1712257556165714200,5.966714111328125,-0.21563053131103516,0.02906489372253418,-0.04370838403701782
1712257556175713000,5.976713134765625,-0.19228267669677734,0.03551745414733887,0.01546478271484375
1712257556185711600,5.986711669921875,-0.0967254638671875,0.03435230255126953,0.03082406520843506
1712257556195710500,5.99671044921875,-0.0319976806640625,-0.026991605758666992,-0.05928528308868408
1712257556205709300,6.006709228515625,0.013462066650390625,-0.06880021095275879,-0.11084258556365967
1712257556215708000,6.0167080078125,-0.06586933135986328,-0.10506677627563477,-0.12040311098098755
1712257556225706800,6.026706787109375,-0.1623973846435547,-0.08513402938842773,-0.1040564775466919
1712257556235705300,6.036705322265625,-0.14437580108642578,-0.06856322288513184,-0.09446936845779419
1712257556245704200,6.0467041015625,0.0050201416015625,-0.017065048217773438,-0.039637982845306396
1712257556255702800,6.056702880859375,0.06321907043457031,-0.0075321197509765625,-0.026176929473876953
1712257556265701600,6.06670166015625,0.056670188903808594,-0.016821861267089844,-0.0075380802154541016
1712257556275700500,6.076700439453125,0.023975372314453125,-0.036453962326049805,0.01826930046081543
1712257556285699000,6.086698974609375,0.08009052276611328,-0.046938419342041016,0.009147882461547852
1712257556295698000,6.096697998046875,0.09568309783935547,-0.014354705810546875,-0.004509866237640381
1712257556305696800,6.10669677734375,0.0996561050415039,-0.013906002044677734,-0.014734506607055664
1712257556315695400,6.1166953125,0.04868602752685547,-0.013992071151733398,-0.020157814025878906
1712257556325694200,6.126694091796875,0.028830528259277344,0.0072422027587890625,0.0207902193069458
1712257556335693000,6.136693115234375,0.06174468994140625,0.047460317611694336,0.02990204095840454
1712257556345691600,6.146691650390625,0.07102680206298828,0.0746147632598877,0.02159571647644043
1712257556355690500,6.1566904296875,0.042385101318359375,0.06914520263671875,-0.006208300590515137
1712257556365689000,6.166689208984375,-0.06012916564941406,0.011826515197753906,0.0022147297859191895
1712257556375688000,6.17668798828125,-0.1889190673828125,-0.00046825408935546875,-0.01985067129135132
1712257556385686500,6.1866865234375,-0.12368106842041016,-0.003548860549926758,-0.032360076904296875
1712257556395685400,6.196685302734375,-0.03457832336425781,0.008290529251098633,-0.11741143465042114
1712257556405684200,6.206684326171875,-0.04873847961425781,-0.05796384811401367,-0.13184303045272827
1712257556415683000,6.21668310546875,-0.11360454559326172,-0.08246684074401855,-0.06257867813110352
1712257556425681700,6.226681640625,-0.14290142059326172,-0.0601201057434082,-0.005004286766052246
1712257556435680500,6.236680419921875,-0.10064411163330078,0.04035663604736328,0.07061523199081421
1712257556445679400,6.246679443359375,-0.01996898651123047,0.07153654098510742,0.11085021495819092
1712257556455678000,6.256677978515625,0.0228271484375,0.06800580024719238,0.11804741621017456
1712257556465676800,6.2666767578125,0.032421112060546875,0.03947710990905762,0.10759878158569336
1712257556475675400,6.27667529296875,-0.0058231353759765625,0.022855520248413086,0.06800997257232666
1712257556485674200,6.28667431640625,0.018090248107910156,0.05431652069091797,0.021836936473846436
1712257556495672800,6.2966728515625,0.039565086364746094,0.07134437561035156,0.019577741622924805
1712257556505671700,6.306671630859375,-0.025142669677734375,0.10489320755004883,-0.015600204467773438
1712257556515670500,6.31667041015625,-0.01055908203125,0.11548829078674316,0.009798526763916016
1712257556525669000,6.326669189453125,-0.007489204406738281,0.11499762535095215,0.04349160194396973
1712257556535667700,6.336667724609375,-0.013505935668945312,0.053006887435913086,0.020841598510742188
1712257556545666600,6.34666650390625,0.040477752685546875,-0.028606653213500977,-0.028531789779663086
1712257556555665400,6.35666552734375,0.08927726745605469,-0.06072854995727539,-0.02026599645614624
1712257556565664000,6.3666640625,0.010684013366699219,-0.05269956588745117,-0.004104912281036377
1712257556575662800,6.376662841796875,-0.013035774230957031,-0.0033178329467773438,0.0700187087059021
1712257556585661400,6.386661376953125,-0.003116607666015625,0.05074787139892578,0.07108670473098755
1712257556595660300,6.396660400390625,0.009534835815429688,0.03189563751220703,0.020890414714813232
1712257556605659000,6.406658935546875,0.04369354248046875,-0.015767812728881836,-0.028502702713012695
1712257556615657700,6.41665771484375,-0.02791595458984375,-0.040593624114990234,-0.07646363973617554
1712257556625656300,6.42665625,-0.05434894561767578,-0.055292367935180664,-0.11007225513458252
1712257556635655200,6.4366552734375,-0.011745452880859375,-0.02811741828918457,-0.13497334718704224
1712257556645653800,6.44665380859375,-0.014780044555664062,-0.07005667686462402,-0.12781041860580444
1712257556655652600,6.456652587890625,-0.025119781494140625,-0.11649632453918457,-0.09595704078674316
1712257556665651500,6.4666513671875,-0.057396888732910156,-0.10169696807861328,-0.07048088312149048
1712257556675650000,6.476650146484375,-0.10915184020996094,-0.07381343841552734,-0.0992358922958374
1712257556685649000,6.48664892578125,-0.09880638122558594,-0.0885474681854248,-0.14175409078598022
1712257556695647700,6.496647705078125,-0.03350830078125,-0.09557914733886719,-0.12680941820144653
1712257556705646600,6.506646484375,0.0005960464477539062,-0.10456681251525879,-0.09550029039382935
1712257556715645200,6.516645263671875,-0.017891883850097656,-0.05852389335632324,-0.05071854591369629
1712257556725644000,6.52664404296875,-0.040778160095214844,-0.032816410064697266,-0.036129772663116455
1712257556735642600,6.536642578125,-0.048900604248046875,-0.01799941062927246,-0.017970025539398193
1712257556745641500,6.546641357421875,-0.05191612243652344,-0.0017194747924804688,-0.0011673569679260254
1712257556755640000,6.55664013671875,0.04816913604736328,0.014296531677246094,-0.007144331932067871
1712257556765639000,6.566638916015625,0.10043716430664062,0.003905057907104492,-0.0018929243087768555
1712257556775637500,6.576637451171875,0.08323383331298828,0.007976055145263672,0.02751946449279785
1712257556785636400,6.58663623046875,0.020524024963378906,0.050167083740234375,0.08175748586654663
1712257556795635200,6.59663525390625,-0.0634469985961914,0.10075521469116211,0.12389415502548218
1712257556805634000,6.606634033203125,-0.09416580200195312,0.10880684852600098,0.0681644082069397
1712257556815632600,6.616632568359375,-0.02850055694580078,0.09566307067871094,0.07993268966674805
1712257556825631500,6.626631591796875,0.0064029693603515625,0.0720207691192627,0.08727240562438965
1712257556835630300,6.63663037109375,-0.013699531555175781,0.06039118766784668,0.0816602110862732
1712257556845629000,6.64662890625,-0.0051059722900390625,0.036725521087646484,0.08642858266830444
1712257556855627800,6.656627685546875,0.058284759521484375,0.006817817687988281,0.04643779993057251
1712257556865626600,6.666626708984375,0.008702278137207031,-0.026320695877075195,0.017058134078979492
1712257556875625500,6.67662548828125,0.03299903869628906,-0.015379667282104492,0.0011653304100036621
1712257556885624300,6.686624267578125,-0.0026569366455078125,0.017374753952026367,0.0120849609375
1712257556895623200,6.696623046875,-0.035574913024902344,-0.011038780212402344,0.0010361671447753906
1712257556905622300,6.706622314453125,-0.03261852264404297,-0.06571292877197266,-0.10069692134857178
1712257556915621000,6.71662109375,-0.013413429260253906,-0.08764219284057617,-0.19589322805404663
1712257556925620000,6.726619873046875,-0.030702590942382812,-0.08887648582458496,-0.15886849164962769
1712257556935618800,6.736618896484375,0.03295421600341797,-0.06716156005859375,-0.08893132209777832
1712257556945617700,6.74661767578125,0.070098876953125,-0.015937089920043945,-0.1004871129989624
1712257556955616500,6.756616455078125,0.057048797607421875,-0.015569210052490234,-0.09446603059768677
1712257556965615400,6.766615478515625,-0.034816741943359375,-0.01621699333190918,0.005651354789733887
1712257556975614200,6.7766142578125,-0.05455589294433594,0.006209135055541992,0.07816743850708008
1712257556985613000,6.786613037109375,-0.049996376037597656,0.016040563583374023,0.07825523614883423
1712257556995612000,6.79661181640625,0.005091667175292969,-0.048915863037109375,0.00005447864532470703
1712257557005610800,6.80661083984375,0.00250244140625,-0.10577273368835449,-0.08061730861663818
1712257557015609600,6.816609619140625,-0.048316001892089844,-0.13049006462097168,-0.11425930261611938
1712257557025608400,6.8266083984375,-0.12816905975341797,-0.12801313400268555,-0.13922417163848877
1712257557035607300,6.836607177734375,-0.17462635040283203,-0.05107283592224121,-0.09852075576782227
1712257557045606100,6.846606201171875,-0.2112741470336914,0.010724067687988281,-0.048905789852142334
1712257557055605000,6.85660498046875,-0.20209693908691406,0.05219721794128418,0.030982017517089844
1712257557065603800,6.866603759765625,-0.11842060089111328,0.03788137435913086,0.037466347217559814
1712257557075602700,6.876602783203125,-0.022749900817871094,0.03811073303222656,0.019026458263397217
1712257557085601500,6.8866015625,0.03227043151855469,0.04307198524475098,0.009560704231262207
1712257557095600400,6.896600341796875,0.027686119079589844,0.03994297981262207,0.006694197654724121
1712257557105599200,6.90659912109375,-0.007796287536621094,0.031046152114868164,0.05178624391555786
1712257557115598000,6.91659814453125,-0.06468963623046875,0.04568982124328613,0.07949477434158325
1712257557125597000,6.926596923828125,-0.05920124053955078,0.08399367332458496,0.11345458030700684
1712257557135595800,6.936595703125,-0.043994903564453125,0.0790104866027832,0.08850044012069702
1712257557145594600,6.9465947265625,-0.0312652587890625,0.04095149040222168,0.05605959892272949
1712257557155593500,6.956593505859375,0.022077560424804688,0.0199739933013916,0.0525660514831543
1712257557165592300,6.96659228515625,0.053786277770996094,-0.002886056900024414,0.03416413068771362
1712257557175591000,6.9765908203125,0.08063602447509766,0.008050203323364258,-0.024806082248687744
1712257557185589800,6.98658984375,0.021233558654785156,-0.007447242736816406,-0.05384737253189087
1712257557195588400,6.99658837890625,-0.07419872283935547,-0.03502535820007324,-0.049684345722198486
1712257557205587200,7.006587158203125,-0.1673269271850586,-0.04092764854431152,-0.042251408100128174
1712257557215585800,7.016585693359375,-0.14818286895751953,-0.021823883056640625,-0.06586682796478271
1712257557225584600,7.026584716796875,-0.09820842742919922,-0.05191302299499512,-0.10093533992767334
1712257557235583200,7.036583251953125,-0.05113983154296875,-0.10653233528137207,-0.10608583688735962
1712257557245582000,7.04658203125,-0.12185001373291016,-0.11395406723022461,-0.08409661054611206
1712257557255580700,7.05658056640625,-0.22400569915771484,-0.06537485122680664,-0.034276485443115234
1712257557265579500,7.06657958984375,-0.2449655532836914,-0.02088475227355957,0.09051746129989624
1712257557275578400,7.076578369140625,-0.1868572235107422,0.02641153335571289,0.18195539712905884
1712257557285577000,7.086576904296875,-0.11179447174072266,0.1001901626586914,0.21016794443130493
1712257557295575800,7.096575927734375,-0.0434112548828125,0.1415419578552246,0.23069989681243896
1712257557305574700,7.10657470703125,0.11686038970947266,0.11584639549255371,0.16346687078475952
1712257557315573200,7.1165732421875,0.2293863296508789,0.058510541915893555,0.06978100538253784
1712257557325572000,7.126572021484375,0.2463235855102539,0.009783267974853516,0.01998203992843628
1712257557335571000,7.136571044921875,0.1438121795654297,0.012316226959228516,0.023937106132507324
1712257557345569500,7.146569580078125,0.12319564819335938,0.003209352493286133,-0.027302920818328857
1712257557355568400,7.156568359375,0.14632797241210938,-0.005789756774902344,-0.013378262519836426
1712257557365567000,7.16656689453125,0.15100765228271484,-0.021726369857788086,0.014130353927612305
1712257557375565800,7.17656591796875,0.16594886779785156,-0.008883237838745117,0.05855274200439453
1712257557385564400,7.186564453125,0.1314411163330078,-0.011093378067016602,0.08678466081619263
1712257557395563300,7.196563232421875,0.11849308013916016,0.010257720947265625,0.12824809551239014
1712257557405562000,7.20656201171875,0.07410907745361328,0.027599334716796875,0.09749126434326172
1712257557415561000,7.21656103515625,-0.0066165924072265625,0.01235198974609375,0.024441778659820557
1712257557425559600,7.2265595703125,-0.03491687774658203,-0.031066179275512695,-0.044397592544555664
1712257557435558400,7.236558349609375,-0.0801992416381836,-0.0712592601776123,-0.0912049412727356
1712257557445557200,7.24655712890625,-0.10875892639160156,-0.08243131637573242,-0.12649846076965332
1712257557455555800,7.256555908203125,-0.029435157775878906,-0.07700061798095703,-0.08194160461425781
1712257557465554700,7.2665546875,-0.0025358200073242188,-0.06006598472595215,-0.049112141132354736
1712257557475553300,7.27655322265625,-0.035178184509277344,-0.05603456497192383,0.006168007850646973
1712257557485552000,7.28655224609375,-0.0197296142578125,-0.021633386611938477,0.04427289962768555
1712257557495550700,7.29655078125,0.03650093078613281,-0.004183053970336914,0.0364149808883667
1712257557505549600,7.306549560546875,0.08775520324707031,-0.022051334381103516,0.0005742311477661133
1712257557515548400,7.31654833984375,0.08363533020019531,-0.05566525459289551,-0.07491761445999146
1712257557525547000,7.326547119140625,0.016897201538085938,-0.07396364212036133,-0.12191355228424072
1712257557535545900,7.3365458984375,-0.07550621032714844,-0.06948685646057129,-0.037331342697143555
1712257557545544400,7.34654443359375,0.028595924377441406,0.01603388786315918,0.10343939065933228
1712257557555543300,7.356543212890625,0.17639636993408203,0.08831310272216797,0.12466466426849365
1712257557565542000,7.3665419921875,0.22421836853027344,0.11579012870788574,0.10483026504516602
1712257557575540700,7.376540771484375,0.14093685150146484,0.09764313697814941,0.049216628074645996
1712257557585539600,7.38653955078125,0.0029449462890625,0.05820012092590332,0.012535154819488525
1712257557595538200,7.3965380859375,-0.0941934585571289,0.015229940414428711,-0.005612671375274658
1712257557605536800,7.406536865234375,-0.0787820816040039,0.005689859390258789,-0.028492391109466553
1712257557615535600,7.41653564453125,-0.01088714599609375,0.0017664432525634766,-0.03944754600524902
1712257557625534200,7.4265341796875,0.05892372131347656,-0.01453709602355957,-0.052597641944885254
1712257557635533000,7.436532958984375,0.06870460510253906,0.007982730865478516,-0.033838093280792236
1712257557645531600,7.44653173828125,0.07631683349609375,0.02002549171447754,-0.008068978786468506
1712257557655530500,7.456530517578125,0.09144210815429688,0.02375173568725586,-0.02394545078277588
1712257557665529300,7.466529296875,0.010954856872558594,-0.02115178108215332,-0.02995985746383667
1712257557675528000,7.47652783203125,-0.052916526794433594,-0.020253419876098633,-0.03246915340423584
1712257557685526800,7.48652685546875,-0.15520858764648438,0.0025033950805664062,0.00395578145980835
1712257557695525600,7.496525634765625,-0.13544273376464844,0.04231977462768555,-0.007773220539093018
1712257557705524200,7.506524169921875,-0.0940866470336914,0.06783294677734375,0.005970656871795654
1712257557715523000,7.516523193359375,-0.08852100372314453,0.06199765205383301,-0.000518798828125
1712257557725521700,7.526521728515625,-0.08515262603759766,-0.011709451675415039,-0.0476527214050293
1712257557735520500,7.5365205078125,-0.12274932861328125,-0.06303930282592773,-0.06743180751800537
1712257557745519400,7.546519287109375,-0.17980384826660156,-0.07511162757873535,-0.09796404838562012
1712257557755518000,7.55651806640625,-0.17961502075195312,-0.07927322387695312,-0.08227652311325073
1712257557765516800,7.566516845703125,-0.13410282135009766,-0.056153297424316406,-0.05314946174621582
1712257557775515400,7.576515380859375,-0.12931346893310547,-0.07104849815368652,-0.04871869087219238
1712257557785514200,7.58651416015625,-0.13665103912353516,-0.04457378387451172,-0.03481185436248779
1712257557795513000,7.59651318359375,-0.2015209197998047,-0.02016592025756836,0.014866352081298828
1712257557805511700,7.60651171875,-0.20883941650390625,0.0015718936920166016,0.018726229667663574
1712257557815510500,7.616510498046875,-0.18254756927490234,-0.014950037002563477,0.023310482501983643
1712257557825509400,7.62650927734375,-0.07021713256835938,-0.0475616455078125,0.00866234302520752
1712257557835508000,7.636508056640625,-0.0036869049072265625,-0.05245494842529297,-0.001556694507598877
1712257557845506800,7.6465068359375,-0.04265785217285156,-0.032840728759765625,-0.01867079734802246
1712257557855505700,7.656505615234375,-0.09347248077392578,0.009968996047973633,-0.01817953586578369
1712257557865504300,7.666504150390625,-0.13225841522216797,0.01168966293334961,0.013999104499816895
1712257557875503000,7.676503173828125,-0.1612710952758789,0.027113914489746094,0.036003172397613525
1712257557885501700,7.686501708984375,-0.16374683380126953,0.04441547393798828,0.08790171146392822
1712257557895500500,7.69650048828125,-0.1491994857788086,0.10434103012084961,0.20683228969573975
1712257557905499400,7.70649951171875,-0.00959014892578125,0.1749894618988037,0.3024752140045166
1712257557915498500,7.71649853515625,0.13066768646240234,0.22728681564331055,0.3270314931869507
1712257557925497300,7.726497314453125,0.101470947265625,0.21785831451416016,0.3049251437187195
1712257557935496400,7.736496337890625,0.06555366516113281,0.20874381065368652,0.14959663152694702
1712257557945495300,7.746495361328125,0.06821441650390625,0.07820272445678711,-0.1541629135608673
1712257557955494400,7.756494384765625,0.05371284484863281,-0.14552068710327148,-0.3543533682823181
1712257557965493200,7.7664931640625,0.06824302673339844,-0.29259204864501953,-0.39384129643440247
1712257557975492400,7.776492431640625,0.1168069839477539,-0.2709171772003174,-0.2855702340602875
1712257557985491500,7.786491455078125,0.07932472229003906,-0.1390542984008789,-0.11974430084228516
1712257557995490600,7.796490478515625,0.11351871490478516,0.012610435485839844,0.11307680606842041
1712257558005489700,7.80648974609375,0.10208606719970703,0.10740089416503906,0.2452458143234253
1712257558015488500,7.816488525390625,0.13336849212646484,0.15770435333251953,0.31473875045776367
1712257558025487600,7.826487548828125,0.15231895446777344,0.11553621292114258,0.25456368923187256
1712257558035486700,7.83648681640625,0.14476490020751953,0.018393993377685547,0.10066580772399902
1712257558045485800,7.84648583984375,0.1253042221069336,-0.08660030364990234,-0.11643505096435547
1712257558055485000,7.85648486328125,-0.02085113525390625,-0.18064093589782715,-0.2514716386795044
1712257558065483800,7.86648388671875,-0.1380138397216797,-0.18245577812194824,-0.34072792530059814
1712257558075483000,7.87648291015625,-0.0922842025756836,-0.17708826065063477,-0.3569001853466034
1712257558085482000,7.88648193359375,-0.010786056518554688,-0.15156888961791992,-0.20448890328407288
1712257558095481000,7.896481201171875,0.044213294982910156,-0.07943224906921387,0.0013135075569152832
1712257558105480200,7.906480224609375,0.10154151916503906,0.021728038787841797,0.14717817306518555
1712257558115479000,7.91647900390625,0.06801414489746094,0.03368568420410156,0.20481634140014648
1712257558125478100,7.92647802734375,0.005875587463378906,0.032747507095336914,0.1921491026878357
1712257558135477200,7.936477294921875,-0.027609825134277344,0.003063201904296875,0.13760113716125488
1712257558145476400,7.946476318359375,-0.05630779266357422,-0.03149247169494629,0.03787350654602051
1712257558155475500,7.956475341796875,-0.03469562530517578,-0.06616044044494629,-0.0379178524017334
1712257558165474600,7.966474609375,-0.06318283081054688,-0.09167194366455078,-0.09330350160598755
1712257558175473400,7.976473388671875,-0.1082763671875,-0.13196182250976562,-0.20693960785865784
1712257558185472500,7.986472412109375,-0.11976337432861328,-0.14842462539672852,-0.21368539333343506
1712257558195471600,7.9964716796875,-0.09766674041748047,-0.12415146827697754,-0.16644632816314697
