time,seconds_elapsed,z,y,x
1712257617485059600,0.0890595703125,0.16808223724365234,0.6628179550170898,-0.10756179690361023
1712257617495058400,0.099058349609375,0.1714916229248047,0.6484003067016602,-0.10262873768806458
1712257617505058000,0.10905810546875,0.09009170532226562,0.5758321285247803,0.10409912467002869
1712257617515057700,0.1190576171875,0.08871269226074219,0.6124677658081055,0.12847194075584412
1712257617525057500,0.1290576171875,0.24451541900634766,0.5812633037567139,0.17830640077590942
1712257617535057000,0.139056884765625,0.29388904571533203,0.5117604732513428,0.13404807448387146
1712257617545056000,0.149055908203125,0.16470909118652344,0.4865095615386963,0.1019972562789917
1712257617555055400,0.159055419921875,-0.13114261627197266,0.45788025856018066,0.12176406383514404
1712257617565054500,0.169054443359375,-0.41902923583984375,0.38581061363220215,0.10496509075164795
1712257617575053800,0.1790537109375,-0.633021354675293,0.3450498580932617,0.08356821537017822
1712257617585053000,0.189052978515625,-0.7156496047973633,0.31739377975463867,-0.006333380937576294
1712257617595052300,0.19905224609375,-0.6264171600341797,0.3423004150390625,0.00698205828666687
1712257617605051600,0.2090517578125,-0.5040998458862305,0.3168215751647949,-0.03736028075218201
1712257617615051000,0.219051025390625,-0.35848522186279297,0.2510347366333008,-0.03949320316314697
1712257617625050400,0.22905029296875,-0.1392822265625,0.28114938735961914,-0.00009870529174804688
1712257617635049700,0.2390498046875,-0.06174755096435547,0.28420305252075195,0.03556865453720093
1712257617645048800,0.249048828125,-0.024707794189453125,0.26737046241760254,-0.024695903062820435
1712257617655048200,0.259048095703125,-0.011023521423339844,0.305849552154541,0.0036082565784454346
1712257617665047300,0.26904736328125,-0.1185140609741211,0.3889122009277344,0.047623395919799805
1712257617675046400,0.27904638671875,-0.21152687072753906,0.45954203605651855,0.14467406272888184
1712257617685045500,0.28904541015625,-0.27845287322998047,0.4400768280029297,0.016979992389678955
1712257617695044600,0.299044677734375,-0.22614288330078125,0.410473108291626,-0.14002062380313873
1712257617705043700,0.309043701171875,-0.04714488983154297,0.41806983947753906,-0.16685563325881958
1712257617715042800,0.319042724609375,0.1754140853881836,0.4486236572265625,-0.11036254465579987
1712257617725042000,0.3290419921875,0.250396728515625,0.43821191787719727,-0.04060894250869751
1712257617735041000,0.339041015625,0.2713766098022461,0.4191744327545166,-0.002042323350906372
1712257617745040000,0.349039794921875,0.16136837005615234,0.3997924327850342,0.016702800989151
1712257617755039000,0.3590390625,0.0012578964233398438,0.37697291374206543,-0.023797929286956787
1712257617765038000,0.3690380859375,-0.07077980041503906,0.36514997482299805,-0.03219437599182129
1712257617775037000,0.379036865234375,-0.11499214172363281,0.3586139678955078,-0.047441840171813965
1712257617785036000,0.3890361328125,-0.07378101348876953,0.39528346061706543,-0.05835893750190735
1712257617795035000,0.399034912109375,0.010201454162597656,0.433086633682251,-0.08330437541007996
1712257617805034000,0.409033935546875,0.022369384765625,0.42076945304870605,-0.049692630767822266
1712257617815032800,0.41903271484375,-0.02987384796142578,0.41738152503967285,-0.026920676231384277
1712257617825031700,0.42903173828125,-0.07463550567626953,0.3771369457244873,-0.012157469987869263
1712257617835030500,0.439030517578125,-0.078460693359375,0.3936645984649658,-0.07015115022659302
1712257617845029400,0.449029296875,-0.1683053970336914,0.36664509773254395,-0.06448045372962952
1712257617855028200,0.4590283203125,-0.2509336471557617,0.35627007484436035,-0.0659252405166626
1712257617865027000,0.469027099609375,-0.27160167694091797,0.3539915084838867,-0.07841271162033081
1712257617875026000,0.47902587890625,-0.22087860107421875,0.3434767723083496,-0.0679149329662323
1712257617885024800,0.489024658203125,-0.18012523651123047,0.3437066078186035,-0.024807244539260864
1712257617895023600,0.499023681640625,-0.1827535629272461,0.3736302852630615,0.02344757318496704
1712257617905022500,0.5090224609375,-0.24524784088134766,0.358231782913208,0.0207139253616333
1712257617915021000,0.51902099609375,-0.2833681106567383,0.33905029296875,0.01942521333694458
1712257617925020000,0.52902001953125,-0.2638378143310547,0.3433237075805664,0.017057806253433228
1712257617935018500,0.5390185546875,-0.23876667022705078,0.29800844192504883,0.005929470062255859
1712257617945017300,0.549017333984375,-0.1956319808959961,0.252333402633667,-0.002879112958908081
1712257617955016000,0.559015869140625,-0.07229232788085938,0.2232036590576172,0.04360798001289368
1712257617965014800,0.569014892578125,-0.03644847869873047,0.2300727367401123,0.07775697112083435
1712257617975013400,0.579013427734375,0.03186511993408203,0.21689438819885254,0.08747121691703796
1712257617985012200,0.58901220703125,0.08264827728271484,0.21618199348449707,0.09650737047195435
1712257617995010800,0.5990107421875,0.11371135711669922,0.21284770965576172,0.07595577836036682
1712257618005009400,0.609009521484375,0.060690879821777344,0.20336270332336426,0.07229682803153992
1712257618015008300,0.61900830078125,0.012127876281738281,0.1543111801147461,0.01623713970184326
1712257618025007000,0.629007080078125,0.0036754608154296875,0.16462087631225586,0.02797350287437439
1712257618035006000,0.639005859375,0.011588096618652344,0.13561773300170898,0.027577459812164307
1712257618045004500,0.649004638671875,0.05971050262451172,0.09872293472290039,-0.04001834988594055
1712257618055003400,0.65900341796875,0.08800983428955078,0.10923552513122559,-0.014882951974868774
1712257618065002200,0.669002197265625,0.09909248352050781,0.10669469833374023,-0.01728576421737671
1712257618075000800,0.679000732421875,0.03813362121582031,0.07826638221740723,-0.0469704270362854
1712257618084999700,0.688999755859375,0.04890632629394531,0.023700237274169922,-0.059158772230148315
1712257618094998300,0.698998291015625,0.07863235473632812,0.03928351402282715,-0.05967727303504944
1712257618104997000,0.7089970703125,0.06287193298339844,0.02616262435913086,-0.01013997197151184
1712257618114995700,0.71899560546875,0.030236244201660156,0.020606279373168945,-0.02045688033103943
1712257618124994600,0.72899462890625,0.05707740783691406,0.020941972732543945,-0.0586925745010376
1712257618134993400,0.738993408203125,0.05956459045410156,0.043976545333862305,-0.019172251224517822
1712257618144992000,0.748991943359375,0.049938201904296875,0.033882856369018555,0.003996014595031738
1712257618154990800,0.758990966796875,0.052140235900878906,0.019468069076538086,0.04639497399330139
1712257618164989700,0.76898974609375,0.0782012939453125,0.0030679702758789062,0.006548702716827393
1712257618174988500,0.778988525390625,0.13753223419189453,0.0857083797454834,0.007072359323501587
1712257618184987100,0.788987060546875,0.1205606460571289,0.07166004180908203,0.02371653914451599
1712257618194986000,0.798986083984375,0.061153411865234375,0.07474613189697266,0.07067883014678955
1712257618204984600,0.808984619140625,0.02888965606689453,0.06345415115356445,0.07563304901123047
1712257618214983400,0.8189833984375,0.05933094024658203,0.04129171371459961,0.0316866934299469
1712257618224982000,0.82898193359375,0.06329631805419922,0.060240983963012695,0.023919224739074707
1712257618234980900,0.83898095703125,0.086395263671875,0.06471776962280273,-0.009003400802612305
1712257618244979500,0.8489794921875,0.12841510772705078,0.059798240661621094,-0.02157452702522278
1712257618254978300,0.858978271484375,0.070465087890625,0.03611636161804199,-0.023779302835464478
1712257618264977200,0.86897705078125,-0.09925556182861328,0.0003883838653564453,-0.087853342294693
1712257618274976000,0.87897607421875,-0.2371978759765625,-0.0419917106628418,-0.09559914469718933
1712257618284974600,0.888974609375,-0.28873443603515625,-0.11813926696777344,-0.0914502739906311
1712257618294973400,0.898973388671875,-0.115509033203125,-0.09703636169433594,-0.06175816059112549
1712257618304972300,0.90897216796875,-0.0075225830078125,-0.0497286319732666,0.0015240013599395752
1712257618314971000,0.918970947265625,-0.005394935607910156,-0.031944990158081055,0.06261199712753296
1712257618324969500,0.928969482421875,-0.06605720520019531,0.049497127532958984,0.08736658096313477
1712257618334968300,0.93896826171875,-0.07929325103759766,0.009956836700439453,0.03759497404098511
1712257618344967200,0.94896728515625,0.017358779907226562,-0.024132966995239258,-0.042469322681427
1712257618354965800,0.9589658203125,0.0757589340209961,-0.017435550689697266,-0.0021364986896514893
1712257618364964400,0.96896435546875,0.09128952026367188,0.024767637252807617,-0.01883518695831299
1712257618374963200,0.978963134765625,0.09733390808105469,0.035520076751708984,-0.004082798957824707
1712257618384961800,0.9889619140625,0.04822254180908203,0.039129018783569336,-0.01173362135887146
1712257618394960600,0.998960693359375,0.08193588256835938,0.04774951934814453,-0.05252724885940552
1712257618404959500,1.00895947265625,0.1465139389038086,0.05446600914001465,-0.052856624126434326
1712257618414958000,1.0189580078125,0.060321807861328125,0.07517790794372559,-0.006626993417739868
1712257618424957000,1.02895703125,0.04400348663330078,0.04914236068725586,-0.004191398620605469
1712257618434955500,1.03895556640625,0.028174400329589844,0.07940292358398438,0.01981574296951294
1712257618444954400,1.048954345703125,-0.03503990173339844,0.06047654151916504,0.03737002611160278
1712257618454953200,1.058953125,-0.057239532470703125,0.02640843391418457,-0.018162667751312256
1712257618464951800,1.068951904296875,-0.012705802917480469,-0.028282642364501953,-0.032775163650512695
1712257618474950700,1.07895068359375,-0.03587818145751953,-0.037923336029052734,0.03478211164474487
1712257618484949200,1.08894921875,-0.07864570617675781,-0.04376530647277832,0.06854322552680969
1712257618494948000,1.098947998046875,-0.09532642364501953,-0.048752546310424805,0.017944306135177612
1712257618504946700,1.10894677734375,-0.052374839782714844,-0.04342842102050781,-0.032928466796875
1712257618514945500,1.118945556640625,0.0120086669921875,-0.0377805233001709,-0.023676514625549316
1712257618524944400,1.1289443359375,0.028532028198242188,-0.015537738800048828,-0.0018858909606933594
1712257618534943000,1.13894287109375,-0.007396697998046875,-0.017976760864257812,-0.0060463547706604
1712257618544941800,1.14894189453125,-0.09096336364746094,-0.002107858657836914,0.007072001695632935
1712257618554940700,1.158940673828125,-0.15987682342529297,0.008102178573608398,-0.008615046739578247
1712257618564939500,1.168939453125,-0.09697246551513672,0.01795649528503418,-0.02946561574935913
1712257618574938000,1.178938232421875,-0.029506683349609375,0.0023043155670166016,-0.02246573567390442
1712257618584937000,1.18893701171875,-0.00524139404296875,0.03966355323791504,0.0059448182582855225
1712257618594935600,1.198935546875,-0.007000923156738281,0.04017305374145508,-0.004154413938522339
1712257618604934400,1.208934326171875,0.027380943298339844,0.05433392524719238,-0.03324472904205322
1712257618614933000,1.21893310546875,0.026088714599609375,0.036546945571899414,-0.033027440309524536
1712257618624931800,1.228931884765625,-0.006329536437988281,0.05697226524353027,0.0061962902545928955
1712257618634930700,1.2389306640625,-0.028970718383789062,0.045697689056396484,-0.03140100836753845
1712257618644929500,1.248929443359375,-0.0035076141357421875,0.04570341110229492,-0.03291472792625427
1712257618654928400,1.258928466796875,-0.021106719970703125,0.07430505752563477,0.040027469396591187
1712257618664927200,1.26892724609375,-0.043326377868652344,0.08335590362548828,0.030855447053909302
1712257618674926300,1.27892626953125,0.001850128173828125,0.05074739456176758,0.03282040357589722
1712257618684925200,1.28892529296875,0.016121864318847656,-0.006188154220581055,-0.015041321516036987
1712257618694924000,1.298924072265625,0.008738517761230469,0.013909339904785156,-0.04903280735015869
1712257618704923000,1.3089228515625,0.039748191833496094,0.03367781639099121,-0.036914944648742676
1712257618714921700,1.318921630859375,0.07322216033935547,0.03651618957519531,0.008574724197387695
1712257618724920600,1.328920654296875,0.05634021759033203,0.02996826171875,0.020910203456878662
1712257618734919400,1.33891943359375,-0.008349418640136719,0.003949642181396484,0.00761076807975769
1712257618744918300,1.348918212890625,-0.08737945556640625,-0.005431413650512695,0.011520802974700928
1712257618754917000,1.358917236328125,-0.11132240295410156,-0.019612550735473633,-0.006283670663833618
1712257618764916000,1.368916015625,-0.15219593048095703,-0.033255815505981445,-0.009867578744888306
1712257618774914800,1.378914794921875,-0.11191463470458984,-0.02448129653930664,-0.01654106378555298
1712257618784913700,1.38891357421875,-0.11513423919677734,-0.016844749450683594,0.017135798931121826
1712257618794912500,1.39891259765625,-0.02063274383544922,-0.043807029724121094,0.01736658811569214
1712257618804911400,1.408911376953125,0.029923439025878906,-0.056374549865722656,0.0038684606552124023
1712257618814910200,1.41891015625,0.0055694580078125,-0.019144058227539062,0.039085954427719116
1712257618824909000,1.428908935546875,-0.054602622985839844,-0.003783702850341797,0.03151750564575195
1712257618834908000,1.438907958984375,-0.0927886962890625,-0.025617122650146484,-0.024078935384750366
1712257618844906800,1.44890673828125,-0.06612586975097656,-0.00015425682067871094,-0.015112221240997314
1712257618854905600,1.458905517578125,-0.03697967529296875,0.022755146026611328,0.005102396011352539
1712257618864904400,1.468904541015625,-0.010076522827148438,0.009361028671264648,-0.020591765642166138
1712257618874903300,1.4789033203125,-0.02629852294921875,-0.035066843032836914,-0.09178835153579712
1712257618884902100,1.488902099609375,-0.06919002532958984,-0.0021524429321289062,-0.03912129998207092
1712257618894901000,1.49890087890625,-0.06641864776611328,-0.007992744445800781,-0.037145256996154785
1712257618904899800,1.50889990234375,-0.09696102142333984,-0.009578704833984375,-0.05004647374153137
1712257618914899000,1.51889892578125,-0.091461181640625,0.012509822845458984,-0.03256940841674805
1712257618924897500,1.5288974609375,-0.15288829803466797,0.029584884643554688,0.02732565999031067
1712257618934896400,1.538896484375,-0.1782999038696289,0.032158851623535156,0.05979856848716736
1712257618944895200,1.548895263671875,-0.1270437240600586,0.0060634613037109375,0.05499538779258728
1712257618954893800,1.558893798828125,0.0030307769775390625,-0.009711265563964844,0.05871352553367615
1712257618964892700,1.568892578125,0.08960723876953125,-0.036217689514160156,0.06689774990081787
1712257618974891300,1.578891357421875,0.0821685791015625,-0.06095147132873535,0.03750300407409668
1712257618984890000,1.58889013671875,0.0023136138916015625,-0.08428549766540527,-0.01840314269065857
1712257618994888700,1.598888671875,-0.04459381103515625,-0.07994341850280762,-0.03857412934303284
1712257619004887600,1.608887451171875,-0.13263893127441406,-0.0672144889831543,-0.05098682641983032
1712257619014886100,1.61888623046875,-0.17504596710205078,-0.06679320335388184,-0.04719659686088562
1712257619024885000,1.628885009765625,-0.0998392105102539,-0.031035661697387695,-0.00446242094039917
1712257619034883600,1.638883544921875,-0.04094886779785156,0.02767324447631836,0.06979131698608398
1712257619044882400,1.64888232421875,-0.07479190826416016,0.06324386596679688,0.12304532527923584
1712257619054881300,1.65888134765625,-0.08469009399414062,0.0894012451171875,0.17296171188354492
1712257619064879900,1.6688798828125,-0.044289588928222656,0.12505507469177246,0.23750168085098267
1712257619074878700,1.678878662109375,-0.0015554428100585938,0.13934826850891113,0.2182995080947876
1712257619084877600,1.688877685546875,0.06991863250732422,0.1654961109161377,0.22610127925872803
1712257619094876200,1.698876220703125,0.1366262435913086,0.20104050636291504,0.18908590078353882
1712257619104875000,1.708875,0.24169921875,0.2050483226776123,0.10562264919281006
1712257619114873600,1.71887353515625,0.2343130111694336,0.25155043601989746,0.06987392902374268
1712257619124872400,1.72887255859375,0.16257762908935547,0.2439892292022705,0.05127596855163574
1712257619134871300,1.738871337890625,0.12405586242675781,0.1855466365814209,-0.055540621280670166
1712257619144870000,1.748869873046875,0.16541767120361328,0.14430546760559082,-0.12192970514297485
1712257619154868700,1.75886865234375,0.15188217163085938,0.11218643188476562,-0.09519520401954651
1712257619164867600,1.76886767578125,0.06186103820800781,0.05585956573486328,-0.04273700714111328
1712257619174866200,1.7788662109375,-0.02823638916015625,0.026114225387573242,-0.031036853790283203
1712257619184865000,1.788864990234375,-0.11622238159179688,-0.002855539321899414,-0.011722683906555176
1712257619194863600,1.798863525390625,-0.18067359924316406,-0.05444955825805664,0.06207507848739624
1712257619204862500,1.808862548828125,-0.1209716796875,-0.08316206932067871,0.06944775581359863
1712257619214861300,1.818861328125,0.005600929260253906,-0.0511317253112793,0.11762571334838867
1712257619224860000,1.82885986328125,0.05062675476074219,-0.030454635620117188,0.15269756317138672
1712257619234858800,1.838858642578125,0.059703826904296875,-0.03151822090148926,0.11766022443771362
1712257619244857300,1.848857421875,0.006352424621582031,-0.0876157283782959,0.06163209676742554
1712257619254856200,1.858856201171875,-0.032802581787109375,-0.1029062271118164,-0.051845669746398926
1712257619264855000,1.86885498046875,-0.043239593505859375,-0.0824887752532959,-0.12063208222389221
1712257619274853600,1.878853515625,-0.06320858001708984,-0.09809732437133789,-0.11281552910804749
1712257619284852500,1.8888525390625,-0.10469627380371094,-0.06572914123535156,-0.10599491000175476
1712257619294851300,1.898851318359375,-0.10145187377929688,-0.047452688217163086,-0.075402170419693
1712257619304850000,1.908849853515625,-0.05010509490966797,-0.015236377716064453,-0.031717538833618164
1712257619314848800,1.918848876953125,-0.09658622741699219,-0.0315699577331543,0.019378632307052612
1712257619324847600,1.92884765625,-0.116455078125,-0.041229248046875,0.01821458339691162
1712257619334846200,1.93884619140625,-0.09314537048339844,-0.0149078369140625,0.06778380274772644
1712257619344845000,1.948844970703125,-0.019323348999023438,-0.010439634323120117,0.03833356499671936
1712257619354843600,1.95884375,0.028192520141601562,-0.032258033752441406,-0.015879392623901367
1712257619364842500,1.968842529296875,0.003954887390136719,0.0007004737854003906,0.03575289249420166
1712257619374841000,1.978841064453125,-0.015186309814453125,-0.015431404113769531,0.07002854347229004
1712257619384840000,1.98883984375,-0.024568557739257812,-0.015544891357421875,0.0791780948638916
1712257619394838500,1.998838623046875,-0.009858131408691406,-0.0065991878509521484,0.09592640399932861
1712257619404837400,2.00883740234375,0.004895210266113281,0.016508817672729492,0.09637939929962158
1712257619414836000,2.0188359375,0.026782989501953125,0.006079912185668945,0.08344173431396484
1712257619424834800,2.028834716796875,0.05344867706298828,0.03627943992614746,0.06155979633331299
1712257619434833400,2.03883349609375,0.09211540222167969,0.028105974197387695,0.049117445945739746
1712257619444832300,2.048832275390625,0.11884880065917969,0.05568432807922363,0.03936350345611572
1712257619454831000,2.0588310546875,0.1266040802001953,0.05152463912963867,0.030103206634521484
1712257619464829700,2.06882958984375,0.12014102935791016,0.0779266357421875,0.10063451528549194
1712257619474828500,2.07882861328125,0.1258831024169922,0.08444356918334961,0.08756649494171143
1712257619484827100,2.0888271484375,0.09627914428710938,0.0422511100769043,0.07653391361236572
1712257619494826000,2.098825927734375,0.11703014373779297,0.04288887977600098,0.08257973194122314
1712257619504824600,2.108824462890625,0.10654544830322266,0.03664255142211914,0.07448351383209229
1712257619514823400,2.118823486328125,0.014433860778808594,0.01665806770324707,0.03547871112823486
1712257619524822300,2.128822265625,-0.0036449432373046875,0.025627613067626953,-0.03979545831680298
1712257619534820900,2.13882080078125,-0.03857231140136719,0.04166364669799805,-0.04822123050689697
1712257619544819700,2.14881982421875,-0.10206794738769531,-0.007575035095214844,-0.041350334882736206
1712257619554818600,2.158818603515625,-0.1248311996459961,-0.023456335067749023,-0.04359489679336548
1712257619564817400,2.1688173828125,-0.15981197357177734,-0.009909391403198242,-0.08393841981887817
1712257619574816000,2.17881591796875,-0.10419750213623047,0.019125938415527344,-0.12174507975578308
1712257619584814800,2.18881494140625,-0.04137706756591797,0.04328751564025879,-0.08281394839286804
1712257619594813400,2.1988134765625,-0.028818130493164062,0.021927595138549805,-0.012871265411376953
1712257619604812300,2.208812255859375,-0.0737447738647461,0.019831180572509766,0.07359260320663452
1712257619614811000,2.218810791015625,-0.05389595031738281,0.017611026763916016,0.04838675260543823
1712257619624809700,2.228809814453125,-0.060268402099609375,0.03447389602661133,0.023930013179779053
1712257619634808600,2.23880859375,-0.03291130065917969,0.017261743545532227,0.001497507095336914
1712257619644807200,2.24880712890625,-0.01999664306640625,0.024164676666259766,-0.013397514820098877
1712257619654806000,2.258805908203125,-0.016683578491210938,0.016729354858398438,-0.01842939853668213
1712257619664804900,2.268804931640625,0.05841827392578125,0.035746097564697266,-0.021053671836853027
1712257619674803500,2.278803466796875,0.044867515563964844,0.03328251838684082,-0.0061626434326171875
1712257619684802300,2.28880224609375,0.052893638610839844,0.06883120536804199,-0.006729304790496826
1712257619694801400,2.298801513671875,0.01788043975830078,0.01775217056274414,-0.015139937400817871
1712257619704800300,2.30880029296875,-0.02924823760986328,-0.013957023620605469,0.0016655921936035156
1712257619714799000,2.318799072265625,-0.06222057342529297,-0.0019459724426269531,0.04959726333618164
1712257619724798200,2.328798095703125,-0.08093547821044922,0.041730403900146484,0.06977081298828125
1712257619734797300,2.33879736328125,-0.013026237487792969,0.05350232124328613,0.04391586780548096
1712257619744796200,2.348796142578125,0.057837486267089844,0.059234619140625,0.06111878156661987
1712257619754795300,2.358795166015625,0.11252689361572266,0.05397939682006836,0.05980193614959717
1712257619764794400,2.36879443359375,0.21558380126953125,0.004343986511230469,0.03874582052230835
1712257619774793500,2.37879345703125,0.27530956268310547,-0.004010438919067383,0.0016742348670959473
1712257619784792600,2.38879248046875,0.2650947570800781,0.015142679214477539,-0.028727620840072632
1712257619794791700,2.398791748046875,0.23768043518066406,0.013618707656860352,0.0008630752563476562
1712257619804790800,2.408790771484375,0.2147674560546875,0.0103302001953125,0.04366236925125122
1712257619814790000,2.418789794921875,0.22290897369384766,0.014434337615966797,0.08407658338546753
1712257619824789000,2.4287890625,0.20416927337646484,0.07271289825439453,0.11026042699813843
1712257619834788000,2.4387880859375,0.16380786895751953,0.09031844139099121,0.18572959303855896
1712257619844787200,2.448787109375,0.05626678466796875,0.014713048934936523,0.08100742101669312
1712257619854786300,2.458786376953125,-0.0946664810180664,-0.05568695068359375,-0.1330992877483368
1712257619864785200,2.46878515625,-0.10922718048095703,-0.03012871742248535,-0.3149843215942383
1712257619874784300,2.4787841796875,0.017974853515625,0.04990243911743164,-0.25082749128341675
1712257619884783400,2.488783447265625,0.17746543884277344,0.08676338195800781,-0.14666324853897095
1712257619894782500,2.498782470703125,0.4940338134765625,0.14608216285705566,-0.06977349519729614
1712257619904781600,2.508781494140625,0.7526817321777344,0.2047102451324463,0.09701916575431824
1712257619914780700,2.51878076171875,0.5829257965087891,0.19131875038146973,0.08047202229499817
1712257619924779800,2.52877978515625,0.2765359878540039,0.11344313621520996,-0.00814962387084961
1712257619934779000,2.53877880859375,0.07698249816894531,0.07678461074829102,-0.07876583933830261
1712257619944778000,2.548778076171875,-0.028753280639648438,0.027514934539794922,-0.1678043156862259
1712257619954777000,2.558777099609375,0.11171436309814453,0.05438375473022461,-0.19186922907829285
1712257619964776200,2.568776123046875,0.37081050872802734,0.09689593315124512,-0.13516893982887268
1712257619974775300,2.578775390625,0.5880289077758789,0.12630105018615723,-0.06871184706687927
1712257619984774100,2.588774169921875,0.697026252746582,0.09987163543701172,-0.05804470181465149
1712257619994773200,2.598773193359375,0.6148529052734375,0.09676623344421387,-0.023447662591934204
1712257620004772000,2.608772216796875,0.5242290496826172,0.10552167892456055,-0.09876427054405212
1712257620014771000,2.61877099609375,0.4659271240234375,0.11421799659729004,-0.07270275056362152
1712257620024769800,2.628769775390625,0.3346672058105469,0.08452844619750977,-0.10189202427864075
1712257620034768600,2.6387685546875,0.12819862365722656,0.037685394287109375,-0.11164793372154236
1712257620044767500,2.648767578125,-0.05766487121582031,-0.01904153823852539,-0.12718668580055237
1712257620054766000,2.65876611328125,-0.18242740631103516,-0.05623364448547363,-0.09964008629322052
1712257620064765000,2.668764892578125,-0.11457633972167969,-0.06132221221923828,-0.14073139429092407
1712257620074763500,2.678763427734375,0.0718374252319336,-0.005753993988037109,-0.14176934957504272
1712257620084762400,2.688762451171875,0.15964317321777344,0.06358003616333008,-0.06220504641532898
1712257620094761000,2.698760986328125,0.09235858917236328,0.036893367767333984,0.02087739109992981
1712257620104759800,2.708759765625,-0.06534767150878906,-0.016348838806152344,0.04610300064086914
1712257620114758400,2.71875830078125,-0.2904500961303711,-0.12782764434814453,0.06581506133079529
1712257620124757200,2.72875732421875,-0.2598142623901367,-0.18932723999023438,0.037584394216537476
1712257620134756000,2.738756103515625,-0.15366554260253906,-0.024564743041992188,0.13815069198608398
1712257620144754700,2.748754638671875,-0.14176654815673828,0.04480695724487305,0.08437269926071167
1712257620154753500,2.75875341796875,-0.30339813232421875,-0.02467966079711914,-0.016818583011627197
1712257620164752400,2.76875244140625,-0.5504751205444336,-0.09367036819458008,-0.07921528816223145
1712257620174751000,2.7787509765625,-0.7086982727050781,-0.10607385635375977,-0.026113271713256836
1712257620184749800,2.788749755859375,-0.6846117973327637,-0.07350301742553711,0.05287003517150879
1712257620194748700,2.798748779296875,-0.5876541137695312,-0.025514602661132812,0.12828803062438965
1712257620204747300,2.808747314453125,-0.6200428009033203,-0.036284446716308594,0.09331762790679932
1712257620214746000,2.81874609375,-0.8409576416015625,-0.040393829345703125,0.020576775074005127
1712257620224744700,2.82874462890625,-1.0351481437683105,-0.09009981155395508,-0.010630667209625244
1712257620234743600,2.83874365234375,-1.2421927452087402,-0.12807273864746094,0.0026250481605529785
1712257620244742400,2.848742431640625,-1.5071930885314941,-0.22547435760498047,0.004354000091552734
1712257620254741000,2.858740966796875,-1.695868968963623,-0.26163387298583984,-0.0068572163581848145
1712257620264739800,2.86873974609375,-1.8195405006408691,-0.2478628158569336,-0.053559064865112305
1712257620274738700,2.87873876953125,-2.013294219970703,-0.32355451583862305,-0.1586153209209442
1712257620284737300,2.8887373046875,-2.198141098022461,-0.3664088249206543,-0.172099769115448
1712257620294736100,2.898736083984375,-2.334841728210449,-0.3917994499206543,-0.11456796526908875
1712257620304735000,2.90873486328125,-2.6697354316711426,-0.5169053077697754,-0.18748575448989868
1712257620314733600,2.918733642578125,-3.0444412231445312,-0.6366219520568848,-0.24216902256011963
1712257620324732400,2.928732421875,-2.9297986030578613,-0.8098998069763184,-0.33431902527809143
1712257620334731000,2.93873095703125,-2.795325756072998,-0.9655423164367676,-0.4319060146808624
1712257620344729900,2.948729736328125,-2.7194180488586426,-1.0542371273040771,-0.5498777627944946
1712257620354728400,2.958728515625,-2.7470293045043945,-1.0868241786956787,-0.5595733523368835
1712257620364727300,2.968727294921875,-2.94834041595459,-1.117525339126587,-0.41788631677627563
1712257620374726100,2.97872607421875,-3.104830265045166,-1.1576952934265137,-0.24039706587791443
1712257620384724700,2.988724853515625,-3.170593738555908,-1.161818265914917,0.05025762319564819
1712257620394723600,2.9987236328125,-3.588014602661133,-1.3190863132476807,0.14132463932037354
1712257620404722400,3.008722412109375,-3.971963405609131,-1.691965103149414,-0.3289487659931183
1712257620414721000,3.018720947265625,-4.265529155731201,-1.9759998321533203,-0.46994441747665405
1712257620424720000,3.028719970703125,-4.193166255950928,-2.2211360931396484,-0.46415722370147705
1712257620434718500,3.038718505859375,-3.695194721221924,-2.54264497756958,-0.4537205696105957
1712257620444717300,3.04871728515625,-3.47415828704834,-2.8866217136383057,-0.5196351408958435
1712257620454716000,3.0587158203125,-3.189444065093994,-3.1397175788879395,-0.7948884963989258
1712257620464714500,3.068714599609375,-2.5257158279418945,-3.3059935569763184,-1.0066912174224854
1712257620474713300,3.07871337890625,-2.0046567916870117,-3.2945330142974854,-0.9701933860778809
1712257620484712200,3.088712158203125,-1.4071693420410156,-3.290494203567505,-0.9544020891189575
1712257620494710800,3.098710693359375,-0.4317140579223633,-3.136847972869873,-1.025144100189209
1712257620504709600,3.108709716796875,0.9628000259399414,-2.8400163650512695,-0.8789912462234497
1712257620514708200,3.118708251953125,2.316952705383301,-2.400688886642456,-0.5996238589286804
1712257620524707000,3.12870703125,3.0776376724243164,-1.9394237995147705,-0.517329216003418
1712257620534706000,3.138705810546875,3.2236757278442383,-1.6584374904632568,-0.40464717149734497
1712257620544704500,3.14870458984375,2.7935142517089844,-1.4542834758758545,-0.14033938944339752
1712257620554703400,3.158703369140625,1.7439136505126953,-1.5750093460083008,-0.07086949050426483
1712257620564702200,3.1687021484375,0.36162471771240234,-1.8363628387451172,-0.06692498922348022
1712257620574700800,3.17870068359375,-0.48731517791748047,-1.9601523876190186,-0.5070326924324036
1712257620584699600,3.18869970703125,-0.4220438003540039,-1.8476312160491943,-1.1761186122894287
1712257620594698200,3.1986982421875,1.0290822982788086,-1.8248348236083984,-1.3566396236419678
1712257620604697000,3.208697021484375,2.4939727783203125,-2.014890193939209,-1.4522485733032227
1712257620614695700,3.21869580078125,3.018916130065918,-1.9063749313354492,-1.1695376634597778
1712257620624694500,3.228694580078125,3.645216941833496,-1.707913875579834,-0.981671929359436
1712257620634693400,3.238693359375,3.8025169372558594,-1.2874841690063477,-0.444968581199646
1712257620644692000,3.24869189453125,3.6979856491088867,-1.2060742378234863,-0.15283185243606567
1712257620654748400,3.25874853515625,3.7651243209838867,-1.066420078277588,-0.06584775447845459
1712257620664747300,3.268747314453125,4.039364814758301,-0.8422889709472656,0.14834856986999512
1712257620674746000,3.27874609375,4.337794303894043,-0.5429096221923828,0.4302142262458801
1712257620684744700,3.28874462890625,4.360570907592773,-0.29838085174560547,0.6869639754295349
1712257620694743600,3.29874365234375,4.234055995941162,-0.17516326904296875,0.9701080322265625
1712257620704742100,3.3087421875,4.3594136238098145,-0.19836759567260742,0.924161434173584
1712257620714741000,3.318740966796875,3.141763687133789,-0.3717780113220215,0.7833221554756165
1712257620724739600,3.328739501953125,2.2203292846679688,-0.568089485168457,0.5518658757209778
1712257620734738400,3.338738525390625,1.8018746376037598,-0.5853452682495117,0.1706334948539734
1712257620744737300,3.3487373046875,1.9621996879577637,-0.48680543899536133,-0.009166359901428223
1712257620754735900,3.35873583984375,2.3353967666625977,-0.33181142807006836,0.03506731986999512
1712257620764734700,3.368734619140625,2.915996551513672,-0.20546340942382812,0.14024955034255981
1712257620774733600,3.378733642578125,3.047421455383301,0.0011849403381347656,0.38037675619125366
1712257620784732400,3.388732421875,2.751645088195801,0.12283849716186523,0.5852234363555908
1712257620794731500,3.3987314453125,2.7358226776123047,0.23003005981445312,0.7093815207481384
1712257620804730400,3.40873046875,3.0072450637817383,0.33576393127441406,0.7971687316894531
1712257620814729500,3.4187294921875,2.9592275619506836,0.24119043350219727,0.635474443435669
1712257620824728300,3.428728271484375,2.739212989807129,-0.009561538696289062,0.5079959034919739
1712257620834727200,3.43872705078125,2.5336294174194336,-0.14977025985717773,0.32185786962509155
1712257620844726300,3.448726318359375,2.5281848907470703,-0.19700145721435547,0.21969157457351685
1712257620854725400,3.458725341796875,3.062195301055908,-0.15394973754882812,0.2397938370704651
1712257620864724500,3.468724365234375,3.81539249420166,-0.03275489807128906,0.36791491508483887
1712257620874723600,3.4787236328125,4.608240604400635,-0.0551609992980957,0.5555086135864258
1712257620884722400,3.488722412109375,3.6290831565856934,-0.3276023864746094,0.42296668887138367
1712257620894721500,3.498721435546875,1.8841886520385742,-0.6605305671691895,0.2698372006416321
1712257620904720600,3.508720703125,1.2543535232543945,-0.7153501510620117,-0.11399257183074951
1712257620914719700,3.5187197265625,1.173903465270996,-0.6313695907592773,-0.20573729276657104
1712257620924718800,3.52871875,1.1640729904174805,-0.5225543975830078,-0.04026073217391968
1712257620934717700,3.5387177734375,1.1878957748413086,-0.5085315704345703,0.028339624404907227
1712257620944716800,3.548716796875,1.149064064025879,-0.5942111015319824,0.09983831644058228
1712257620954716000,3.5587158203125,1.1597509384155273,-0.7278199195861816,-0.04194372892379761
1712257620964715000,3.568715087890625,1.0514488220214844,-0.759918212890625,-0.21434152126312256
1712257620974714000,3.578714111328125,0.7936840057373047,-0.7253756523132324,-0.2398272156715393
1712257620984713000,3.588712890625,0.3663053512573242,-0.8134372234344482,-0.16056597232818604
1712257620994712000,3.598712158203125,0.04802417755126953,-0.8546218872070312,-0.15743833780288696
1712257621004711200,3.608711181640625,-0.004364013671875,-0.8724043369293213,-0.19274640083312988
1712257621014710300,3.618710205078125,0.3327779769897461,-0.8079948425292969,0.02624809741973877
1712257621024709400,3.62870947265625,0.6464738845825195,-0.6907258033752441,0.39531683921813965
1712257621034708500,3.63870849609375,0.4346437454223633,-0.6547262668609619,0.470157265663147
1712257621044707300,3.648707275390625,-0.05458259582519531,-0.7330821752548218,0.15882059931755066
1712257621054706400,3.65870654296875,-0.5577840805053711,-0.6284914016723633,-0.10360950231552124
1712257621064705500,3.66870556640625,-1.332453727722168,-0.7292848825454712,-0.2659500241279602
1712257621074704400,3.678704345703125,-1.7408084869384766,-0.942909836769104,-0.5760296583175659
1712257621084703500,3.688703369140625,-1.8143582344055176,-0.9707556962966919,-0.9153556823730469
1712257621094702300,3.698702392578125,-1.585550308227539,-0.7376198172569275,-0.922167181968689
1712257621104701000,3.708700927734375,-1.5929670333862305,-0.9557130932807922,-0.9288368225097656
1712257621114699800,3.71869970703125,-0.7363996505737305,-0.4188707172870636,-0.20329639315605164
1712257621124698600,3.72869873046875,-1.03692626953125,-0.3985429108142853,-0.14201298356056213
1712257621134697500,3.738697509765625,-1.6226606369018555,-0.46500590443611145,-0.37265610694885254
1712257621144696300,3.7486962890625,-2.093355655670166,-0.4734315872192383,-0.3952869176864624
1712257621154695000,3.75869482421875,-2.511847972869873,-0.470051109790802,-0.42030805349349976
1712257621164693800,3.76869384765625,-2.764765739440918,-0.5206227898597717,-0.4562566876411438
1712257621174692400,3.7786923828125,-2.2871251106262207,-0.5076792240142822,-0.6195412874221802
1712257621184691200,3.788691162109375,-1.365626335144043,-0.3626762628555298,-0.49603551626205444
1712257621194689800,3.798689697265625,-0.9563388824462891,-0.32952916622161865,-0.6066412925720215
1712257621204688600,3.808688720703125,-0.6376571655273438,-0.3964118957519531,-0.46146300435066223
1712257621214687200,3.818687255859375,-0.3244171142578125,-0.4136340618133545,-0.32073694467544556
1712257621224685800,3.828685791015625,-0.10134029388427734,-0.41669631004333496,-0.17118407785892487
1712257621234684700,3.8386845703125,-0.088836669921875,-0.35555291175842285,-0.08529677987098694
1712257621244683500,3.84868359375,-0.4391813278198242,-0.20016050338745117,-0.06848388910293579
1712257621254682000,3.85868212890625,-0.9972124099731445,-0.1915895938873291,-0.13800503313541412
1712257621264681000,3.868680908203125,-1.1484460830688477,-0.19779884815216064,-0.22406214475631714
1712257621274679800,3.8786796875,-0.980494499206543,-0.13290905952453613,-0.2139473557472229
1712257621284678700,3.8886787109375,-0.8467369079589844,-0.05643415451049805,-0.22418059408664703
1712257621294677200,3.89867724609375,-0.8391046524047852,0.0002315044403076172,-0.10962709039449692
1712257621304676000,3.908676025390625,-0.6947727203369141,0.035065412521362305,-0.02986234426498413
1712257621314674700,3.9186748046875,-0.46193790435791016,0.10812664031982422,-0.004110857844352722
1712257621324673500,3.928673583984375,-0.24076557159423828,0.17175579071044922,-0.011940978467464447
1712257621334672100,3.938672119140625,-0.2961750030517578,0.2656559944152832,0.04819105565547943
1712257621344671000,3.9486708984375,-0.39587879180908203,0.27565550804138184,0.10411044210195541
1712257621354669800,3.958669921875,-0.42429542541503906,0.22587800025939941,0.09700148552656174
1712257621364668400,3.96866845703125,-0.5158576965332031,0.17267727851867676,0.053411055356264114
1712257621374667300,3.978667236328125,-0.649871826171875,0.18119454383850098,-0.02827434614300728
1712257621384666000,3.988666015625,-0.7861318588256836,0.24817252159118652,-0.019794542342424393
1712257621394664700,3.998664794921875,-0.9278659820556641,0.17022490501403809,-0.0966038629412651
1712257621404663600,4.00866357421875,-0.9253749847412109,0.14217019081115723,-0.1602395921945572
1712257621414662400,4.018662353515625,-0.970555305480957,0.1719193458557129,-0.2089526206254959
1712257621424661000,4.028660888671875,-1.115614891052246,0.11890053749084473,-0.25868353247642517
1712257621434659800,4.038659912109375,-1.1543998718261719,0.06360816955566406,-0.2949368953704834
1712257621444658400,4.048658447265625,-1.2500343322753906,-0.01710963249206543,-0.324813574552536
1712257621454657300,4.0586572265625,-1.2398242950439453,-0.15896391868591309,-0.3470761179924011
1712257621464656000,4.06865576171875,-1.0423622131347656,-0.06994080543518066,-0.2258547991514206
1712257621474654700,4.07865478515625,-0.8585891723632812,-0.009150028228759766,-0.11228372901678085
1712257621484653600,4.088653564453125,-0.5281991958618164,-0.026682138442993164,0.008495733141899109
1712257621494652400,4.09865234375,-0.2451162338256836,-0.04131340980529785,0.16470204293727875
1712257621504651000,4.108651123046875,-0.1048727035522461,0.025048017501831055,0.15360769629478455
1712257621514649900,4.11864990234375,-0.11923885345458984,0.12850356101989746,0.156965970993042
1712257621524648700,4.128648681640625,-0.12710952758789062,0.1449439525604248,0.15760377049446106
1712257621534647300,4.138647216796875,-0.14448070526123047,0.07229137420654297,0.19403934478759766
1712257621544646000,4.14864599609375,-0.11588096618652344,0.09400320053100586,0.21682213246822357
1712257621554644700,4.158644775390625,-0.28261375427246094,0.09619140625,0.1448599398136139
1712257621564643600,4.1686435546875,-0.3833198547363281,0.061057329177856445,0.010559171438217163
1712257621574642200,4.17864208984375,-0.4609498977661133,0.03394579887390137,0.040229007601737976
1712257621584640800,4.188640869140625,-0.4667787551879883,0.009626150131225586,0.023281008005142212
1712257621594639600,4.1986396484375,-0.33493709564208984,0.012732267379760742,0.004314720630645752
1712257621604638200,4.20863818359375,-0.209625244140625,0.06617903709411621,0.04069173336029053
1712257621614637000,4.218636962890625,-0.04507637023925781,0.13305354118347168,0.03163796663284302
1712257621624635600,4.2286357421875,0.13282108306884766,0.1665782928466797,0.05128338932991028
1712257621634634500,4.238634521484375,0.21220874786376953,0.1745471954345703,0.11702537536621094
1712257621644633300,4.24863330078125,0.1385059356689453,0.15321898460388184,0.0485442578792572
1712257621654632000,4.2586318359375,0.23054981231689453,0.16148877143859863,0.04217764735221863
1712257621664630800,4.268630859375,0.3737173080444336,0.22744154930114746,0.13086897134780884
1712257621674629600,4.278629638671875,0.38387584686279297,0.41745495796203613,0.16835898160934448
1712257621684628200,4.288628173828125,0.34250545501708984,0.3719356060028076,0.051619648933410645
1712257621694627000,4.298626953125,0.2806367874145508,0.04792165756225586,0.043095558881759644
1712257621704625700,4.308625732421875,0.1958332061767578,0.02271103858947754,0.031113505363464355
1712257621714624500,4.31862451171875,0.11398124694824219,0.16837811470031738,0.02509745955467224
1712257621724623000,4.328623046875,0.010496139526367188,0.16583013534545898,-0.052401214838027954
1712257621734622000,4.3386220703125,-0.0093231201171875,0.14923477172851562,0.0003908872604370117
1712257621744620800,4.348620849609375,-0.17286968231201172,-0.0012791156768798828,0.005881011486053467
1712257621754619400,4.358619384765625,-0.31486988067626953,-0.05617547035217285,-0.034814685583114624
1712257621764618200,4.3686181640625,-0.33966541290283203,0.006529092788696289,-0.07248881459236145
1712257621774617000,4.3786171875,-0.2860898971557617,0.08556962013244629,-0.0512540340423584
1712257621784616000,4.388615966796875,-0.3504371643066406,0.06825637817382812,-0.035171061754226685
1712257621794614500,4.398614501953125,-0.33592796325683594,-0.027613401412963867,-0.023863166570663452
1712257621804613400,4.40861328125,-0.2161846160888672,-0.0008907318115234375,-0.006766706705093384
1712257621814612000,4.418612060546875,-0.08701705932617188,0.024147748947143555,-0.06390818953514099
1712257621824610800,4.42861083984375,0.046360015869140625,0.05319356918334961,-0.08184999227523804
1712257621834609400,4.438609375,-0.0023670196533203125,0.056073904037475586,-0.03768032789230347
1712257621844608300,4.448608154296875,-0.10822486877441406,0.0721890926361084,-0.008835256099700928
1712257621854607000,4.458607177734375,-0.24972152709960938,0.06348681449890137,-0.06792941689491272
1712257621864605700,4.468605712890625,-0.21895790100097656,0.06247282028198242,-0.10906863212585449
1712257621874604500,4.4786044921875,-0.16948699951171875,0.0630648136138916,-0.1263243854045868
1712257621884603400,4.488603271484375,-0.051177024841308594,0.07993268966674805,-0.09698131680488586
1712257621894602500,4.4986025390625,0.06902885437011719,0.10316991806030273,-0.056423962116241455
1712257621904601300,4.508601318359375,0.13397598266601562,0.08864259719848633,-0.003416389226913452
1712257621914600200,4.51860009765625,0.22299575805664062,0.09272480010986328,0.0079573392868042
1712257621924599000,4.52859912109375,0.20678997039794922,0.08180475234985352,0.024080485105514526
1712257621934598000,4.538597900390625,0.1477518081665039,0.09374642372131348,0.042638182640075684
1712257621944596700,4.5485966796875,0.12255573272705078,0.13091182708740234,0.06006139516830444
1712257621954595600,4.558595703125,0.03569602966308594,0.146803617477417,0.05218210816383362
1712257621964594400,4.568594482421875,-0.010105133056640625,0.14023900032043457,0.06473922729492188
1712257621974593300,4.57859326171875,-0.007609367370605469,0.1471238136291504,0.0846293568611145
1712257621984592100,4.588592041015625,0.021431922912597656,0.16328144073486328,0.05185791850090027
1712257621994591000,4.598591064453125,-0.004296302795410156,0.14041900634765625,0.017888784408569336
1712257622004589800,4.60858984375,-0.0703887939453125,0.11187934875488281,0.024048924446105957
1712257622014588700,4.618588623046875,-0.10735130310058594,0.08715510368347168,-0.0021657943725585938
1712257622024587500,4.62858740234375,-0.1299123764038086,0.07922172546386719,0.05469709634780884
1712257622034586600,4.638586669921875,-0.0784311294555664,0.04084300994873047,0.060414671897888184
1712257622044585200,4.648585205078125,-0.05610466003417969,0.039275169372558594,0.01921221613883972
1712257622054584000,4.658583984375,0.013703346252441406,0.00030803680419921875,0.015948832035064697
1712257622064583000,4.6685830078125,0.025604248046875,-0.0042841434478759766,0.059103935956954956
1712257622074581800,4.678581787109375,0.015921592712402344,-0.04722142219543457,0.014731347560882568
1712257622084580600,4.68858056640625,0.03507518768310547,-0.04019498825073242,0.011167943477630615
1712257622094579500,4.698579345703125,0.10763263702392578,-0.003762483596801758,0.062022387981414795
1712257622104578300,4.708578369140625,-0.016295433044433594,0.0165712833404541,0.04904353618621826
1712257622114577200,4.7185771484375,-0.11125564575195312,0.007510185241699219,-0.03828558325767517
1712257622124576000,4.728575927734375,-0.1152200698852539,-0.023273944854736328,-0.057520538568496704
1712257622134574800,4.738574951171875,-0.0501556396484375,-0.029059171676635742,-0.008836925029754639
1712257622144574000,4.748573974609375,0.00023174285888671875,-0.010015249252319336,0.020794004201889038
1712257622154572500,4.758572509765625,-0.05248546600341797,-0.028835535049438477,0.0288144052028656
1712257622164571400,4.7685712890625,-0.08592414855957031,-0.021715402603149414,0.06346255540847778
1712257622174570200,4.7785703125,-0.04252910614013672,-0.022227048873901367,0.03455498814582825
1712257622184569000,4.788569091796875,-0.06380939483642578,-0.013020992279052734,-0.049792706966400146
1712257622194567700,4.798567626953125,-0.08991432189941406,-0.006425142288208008,-0.019304543733596802
1712257622204566500,4.80856640625,-0.12801361083984375,-0.030932903289794922,0.00437501072883606
1712257622214565000,4.818565185546875,-0.0968465805053711,-0.043041229248046875,-0.009858816862106323
1712257622224564000,4.82856396484375,-0.07073783874511719,-0.013642311096191406,-0.02429214119911194
1712257622234562600,4.8385625,-0.0016012191772460938,-0.003210306167602539,-0.04340222477912903
1712257622244561400,4.8485615234375,0.0699605941772461,0.009416341781616211,-0.021027952432632446
1712257622254560000,4.85856005859375,0.062493324279785156,0.0076291561126708984,-0.017088770866394043
1712257622264558800,4.868558837890625,0.02623462677001953,0.04431343078613281,-0.03936097025871277
1712257622274557700,4.8785576171875,-0.050487518310546875,0.03952956199645996,0.0035248994827270508
1712257622284556300,4.888556396484375,-0.028636932373046875,0.0361635684967041,0.013856887817382812
1712257622294555100,4.89855517578125,0.019670486450195312,0.04706740379333496,-0.004019588232040405
1712257622304554000,4.908553955078125,0.0991373062133789,0.05323314666748047,0.029681235551834106
1712257622314552600,4.918552490234375,0.13782024383544922,0.057230472564697266,0.046706587076187134
1712257622324551400,4.928551513671875,0.10959720611572266,0.0416417121887207,0.028155535459518433
1712257622334550000,4.938550048828125,0.11495399475097656,0.025797128677368164,-0.0016994774341583252
1712257622344548900,4.948548828125,0.08930397033691406,0.05017375946044922,-0.021043628454208374
1712257622354547700,4.958547607421875,0.02306079864501953,0.02142930030822754,0.006133019924163818
1712257622364546300,4.96854638671875,0.018877029418945312,0.026761770248413086,0.009321093559265137
1712257622374545200,4.978545166015625,0.04816436767578125,0.041794776916503906,0.0006691515445709229
1712257622384544000,4.9885439453125,0.05357074737548828,0.06151103973388672,0.0058553218841552734
1712257622394542600,4.99854248046875,0.04497528076171875,0.01797628402709961,0.03946208953857422
1712257622404541400,5.00854150390625,-0.013936996459960938,0.020155906677246094,0.048299193382263184
1712257622414540300,5.018540283203125,0.0015287399291992188,-0.0018889904022216797,0.03202083706855774
1712257622424539000,5.028538818359375,-0.028594970703125,-0.01880192756652832,0.03679969906806946
1712257622434537700,5.038537841796875,-0.013395309448242188,-0.03995490074157715,0.01722690463066101
1712257622444536300,5.048536376953125,0.04470348358154297,-0.015019893646240234,-0.04802301526069641
1712257622454535200,5.05853515625,0.040335655212402344,-0.0063779354095458984,-0.0020671486854553223
1712257622464533800,5.06853369140625,0.019227981567382812,-0.007411956787109375,0.056168437004089355
1712257622474532600,5.07853271484375,0.010304450988769531,-0.028165102005004883,0.011174261569976807
1712257622484531500,5.088531494140625,-0.020196914672851562,-0.008153676986694336,-0.026464492082595825
1712257622494530300,5.0985302734375,-0.0913381576538086,-0.014761924743652344,-0.02509036660194397
1712257622504529000,5.10852880859375,-0.14570331573486328,-0.033490657806396484,-0.0181562602519989
1712257622514527700,5.11852783203125,-0.15701675415039062,-0.023389339447021484,-0.0014353692531585693
1712257622524526600,5.128526611328125,-0.18738651275634766,-0.02061772346496582,-0.016770869493484497
1712257622534525200,5.138525146484375,-0.1076040267944336,-0.03453993797302246,-0.018519341945648193
1712257622544524000,5.14852392578125,-0.04479694366455078,-0.03343534469604492,-0.0157795250415802
1712257622554522600,5.158522705078125,0.02495098114013672,0.0018873214721679688,-0.008275747299194336
1712257622564521500,5.168521484375,-0.02977275848388672,-0.0013072490692138672,0.016781926155090332
1712257622574520000,5.17852001953125,-0.09868907928466797,-0.03378939628601074,-0.03905254602432251
1712257622584519000,5.188518798828125,-0.08866119384765625,-0.008700847625732422,-0.008196145296096802
1712257622594517500,5.198517578125,-0.02619171142578125,0.007521867752075195,-0.013541609048843384
1712257622604516000,5.20851611328125,0.033669471740722656,0.024375200271606445,0.009679675102233887
1712257622614515000,5.218514892578125,0.04799938201904297,0.029369354248046875,0.02092158794403076
1712257622624513800,5.228513671875,0.10078048706054688,0.02441883087158203,-0.008786439895629883
1712257622634512400,5.238512451171875,0.14398574829101562,0.021756410598754883,-0.006681948900222778
1712257622644511200,5.24851123046875,0.11530017852783203,0.01677250862121582,0.0033751726150512695
1712257622654509800,5.258509765625,0.0771474838256836,0.020981311798095703,0.042608022689819336
1712257622664508700,5.2685087890625,0.008092880249023438,0.02218770980834961,0.03859829902648926
1712257622674507300,5.27850732421875,-0.03197002410888672,0.0035867691040039062,0.0028914213180541992
1712257622684506000,5.288506103515625,-0.08633899688720703,0.04472970962524414,-0.02368101477622986
1712257622694505000,5.2985048828125,-0.13089466094970703,0.04452919960021973,0.03340429067611694
1712257622704503600,5.308503662109375,-0.028848648071289062,0.016664505004882812,0.019492268562316895
1712257622714502400,5.31850244140625,-0.04180145263671875,0.013064146041870117,0.023942142724990845
1712257622724501000,5.3285009765625,-0.05724620819091797,-0.019087553024291992,-0.0115928053855896
1712257622734499800,5.338499755859375,-0.056278228759765625,0.0022318363189697266,-0.0003393590450286865
1712257622744498700,5.348498779296875,-0.10573387145996094,-0.009615182876586914,0.004091441631317139
1712257622754497300,5.358497314453125,-0.0977640151977539,-0.0022401809692382812,-0.012736588716506958
1712257622764496100,5.36849609375,-0.044338226318359375,0.005186796188354492,-0.01491120457649231
1712257622774495000,5.378494873046875,0.008992195129394531,0.015295982360839844,-0.00041857361793518066
1712257622784493600,5.38849365234375,0.040612220764160156,0.018706321716308594,0.009086638689041138
1712257622794492400,5.398492431640625,0.0772562026977539,0.01447606086730957,0.021985292434692383
1712257622804491000,5.408490966796875,0.0804147720336914,0.02702498435974121,0.01734262704849243
1712257622814489900,5.41848974609375,0.0023221969604492188,0.03441286087036133,0.057810842990875244
1712257622824488700,5.42848876953125,-0.049365997314453125,0.02964925765991211,0.016827374696731567
1712257622834487300,5.4384873046875,-0.024446487426757812,0.020131587982177734,0.00692257285118103
1712257622844486100,5.448486083984375,0.024145126342773438,0.03766012191772461,0.04287999868392944
1712257622854484700,5.458484619140625,0.058307647705078125,0.028979778289794922,0.03848755359649658
1712257622864483600,5.468483642578125,0.008703231811523438,-0.02298760414123535,0.03475445508956909
1712257622874482400,5.478482421875,-0.017129898071289062,-0.012292623519897461,0.005151927471160889
1712257622884481000,5.48848095703125,-0.03348541259765625,-0.008512496948242188,0.023500800132751465
1712257622894480000,5.49847998046875,-0.054497718811035156,-0.03853559494018555,0.029321640729904175
1712257622904478700,5.508478759765625,-0.07091617584228516,-0.048850297927856445,-0.024769991636276245
1712257622914477600,5.5184775390625,-0.020575523376464844,-0.012997865676879883,-0.04943433403968811
1712257622924476400,5.528476318359375,-0.0636148452758789,-0.04190349578857422,-0.04455867409706116
1712257622934475300,5.538475341796875,-0.0732574462890625,-0.03707408905029297,-0.00771138072013855
1712257622944474400,5.548474365234375,-0.049495697021484375,-0.010390281677246094,0.010106086730957031
1712257622954473200,5.55847314453125,-0.049729347229003906,-0.0026061534881591797,-0.051796674728393555
1712257622964472300,5.568472412109375,0.009962081909179688,0.024055004119873047,-0.055676430463790894
1712257622974471200,5.57847119140625,-0.014094352722167969,0.019369125366210938,-0.006364703178405762
1712257622984470300,5.58847021484375,-0.07385730743408203,0.03329730033874512,-0.007597088813781738
1712257622994469400,5.598469482421875,-0.08299064636230469,-0.006413698196411133,-0.011274605989456177
1712257623004468500,5.608468505859375,-0.02990245819091797,0.016265153884887695,-0.0033561885356903076
1712257623014467600,5.618467529296875,0.032547950744628906,0.018125057220458984,0.02523103356361389
1712257623024466400,5.628466552734375,0.06853961944580078,0.046770572662353516,0.01955929398536682
1712257623034465500,5.638465576171875,0.03508567810058594,0.0059587955474853516,0.02863866090774536
1712257623044464600,5.648464599609375,0.04225730895996094,0.013146400451660156,0.024030983448028564
1712257623054463700,5.658463623046875,0.061425209045410156,0.0011398792266845703,0.024023115634918213
1712257623064462800,5.668462890625,0.032665252685546875,-0.029892444610595703,0.045457035303115845
1712257623074461700,5.678461669921875,0.02056884765625,-0.053357601165771484,0.04940268397331238
1712257623084460800,5.688460693359375,0.015371322631835938,-0.037531375885009766,0.025732576847076416
1712257623094460000,5.6984599609375,-0.013750076293945312,-0.02408123016357422,-0.015205025672912598
1712257623104459000,5.708458984375,0.038710594177246094,-0.013466596603393555,0.003434419631958008
1712257623114457900,5.718457763671875,0.06969833374023438,-0.03177213668823242,0.03151422739028931
1712257623124457000,5.72845703125,-0.009566307067871094,-0.05223488807678223,0.029074132442474365
1712257623134456000,5.7384560546875,-0.1127614974975586,-0.034563541412353516,0.005963683128356934
1712257623144455200,5.748455078125,-0.08657073974609375,-0.033988237380981445,-0.03581365942955017
1712257623154454300,5.758454345703125,-0.019794464111328125,-0.0020263195037841797,0.0018323659896850586
1712257623164453400,5.768453369140625,-0.060802459716796875,-0.005869865417480469,-0.001144111156463623
1712257623174452200,5.7784521484375,-0.0992727279663086,-0.005411863327026367,0.022767066955566406
1712257623184451300,5.788451416015625,-0.08490467071533203,0.0018262863159179688,0.022374093532562256
1712257623194450400,5.798450439453125,-0.05616283416748047,-0.005289316177368164,0.007380008697509766
1712257623204449500,5.808449462890625,-0.03706550598144531,-0.0001513957977294922,0.02049499750137329
1712257623214448400,5.818448486328125,-0.003536224365234375,0.012010335922241211,0.01195591688156128
1712257623224447200,5.828447265625,-0.06814765930175781,0.009626150131225586,0.0041046142578125
1712257623234446300,5.8384462890625,-0.06077766418457031,0.011539459228515625,-0.024886637926101685
1712257623244445200,5.848445068359375,-0.019826889038085938,0.02998828887939453,-0.04160568118095398
1712257623254444000,5.858444091796875,0.07380104064941406,0.043585777282714844,-0.04356798529624939
1712257623264442600,5.868442626953125,0.0452728271484375,0.014159440994262695,0.00991356372833252
1712257623274441500,5.87844140625,0.03354072570800781,0.04689788818359375,0.0609203577041626
1712257623284440300,5.8884404296875,0.024580955505371094,0.0740509033203125,0.06955242156982422
1712257623294439000,5.89843896484375,0.008756637573242188,0.0502169132232666,-0.0043489933013916016
1712257623304437800,5.908437744140625,-0.08852291107177734,0.021591901779174805,-0.017484962940216064
1712257623314436400,5.918436279296875,-0.09479713439941406,0.0024390220642089844,0.005563974380493164
1712257623324435000,5.92843505859375,0.004088401794433594,-0.00653839111328125,0.020977914333343506
1712257623334433800,5.938433837890625,0.08586978912353516,0.009421110153198242,0.012243151664733887
1712257623344432400,5.948432373046875,0.06456565856933594,0.016103744506835938,0.02068150043487549
1712257623354431200,5.95843115234375,0.00261688232421875,-0.00864720344543457,0.018071234226226807
1712257623364429800,5.968429931640625,-0.035531044006347656,-0.028403520584106445,-0.036015093326568604
1712257623374428700,5.9784287109375,-0.07391929626464844,0.004980802536010742,-0.06726479530334473
1712257623384427300,5.98842724609375,-0.07867145538330078,-0.01938652992248535,-0.05801379680633545
1712257623394426000,5.998426025390625,-0.03320121765136719,-0.022009611129760742,-0.03939622640609741
1712257623404425000,6.008425048828125,0.06478500366210938,-0.014563798904418945,-0.006741464138031006
1712257623414423600,6.018423583984375,0.07868671417236328,-0.018260717391967773,0.018455982208251953
1712257623424422400,6.02842236328125,0.030344009399414062,-0.03390765190124512,0.02185797691345215
1712257623434421200,6.038421142578125,0.058707237243652344,-0.042566776275634766,0.015364408493041992
1712257623444419800,6.048419921875,-0.011144638061523438,-0.04860711097717285,-0.013218820095062256
1712257623454418700,6.058418701171875,-0.0067691802978515625,-0.04752540588378906,-0.007962167263031006
1712257623464417300,6.068417236328125,0.01418304443359375,-0.010013818740844727,0.016368508338928223
1712257623474416000,6.078416015625,0.004103660583496094,-0.04456377029418945,-0.009706318378448486
1712257623484415000,6.0884150390625,-0.02062702178955078,-0.01856398582458496,0.03188389539718628
1712257623494413600,6.09841357421875,-0.06440353393554688,-0.01432943344116211,0.020286500453948975
1712257623504412400,6.108412353515625,-0.07450389862060547,0.01114797592163086,0.012645125389099121
1712257623514411300,6.118411376953125,-0.09142208099365234,-0.016924619674682617,-0.024679183959960938
1712257623524409900,6.128409912109375,-0.050670623779296875,0.007076263427734375,-0.02115914225578308
1712257623534408700,6.13840869140625,-0.07199573516845703,-0.005301713943481445,-0.02495628595352173
1712257623544407600,6.148407470703125,-0.03110504150390625,-0.0009262561798095703,-0.018469035625457764
1712257623554406100,6.15840625,-0.009531974792480469,-0.0009946823120117188,0.007858037948608398
1712257623564405000,6.168405029296875,0.01668071746826172,-0.0054628849029541016,-0.008723735809326172
1712257623574403600,6.178403564453125,0.0067806243896484375,-0.014225006103515625,-0.010561823844909668
1712257623584402400,6.18840234375,0.006464958190917969,-0.0014581680297851562,-0.021968454122543335
1712257623594401300,6.1984013671875,0.025447845458984375,0.02042078971862793,-0.004275619983673096
1712257623604399900,6.20839990234375,0.04216957092285156,0.013295412063598633,0.02480173110961914
1712257623614398700,6.218398681640625,0.09008502960205078,0.02759528160095215,0.043834805488586426
1712257623624397300,6.228397216796875,0.09479808807373047,0.006277322769165039,0.031725287437438965
1712257623634396200,6.238396240234375,0.013264656066894531,0.013835668563842773,-0.011462092399597168
1712257623644395000,6.24839501953125,-0.03692626953125,0.011161327362060547,0.012670457363128662
1712257623654393600,6.2583935546875,-0.05097007751464844,-0.006407499313354492,0.0024976134300231934
1712257623664392400,6.268392333984375,-0.03621101379394531,0.011800527572631836,-0.017641067504882812
1712257623674391300,6.278391357421875,-0.043091773986816406,0.032709598541259766,0.00021779537200927734
1712257623684390000,6.288389892578125,-0.08556938171386719,0.0048177242279052734,0.0038574934005737305
1712257623694388700,6.298388671875,-0.08021926879882812,-0.018230915069580078,-0.0013507604598999023
1712257623704387300,6.30838720703125,-0.07517528533935547,-0.006971597671508789,-0.018100440502166748
1712257623714386200,6.31838623046875,-0.10134315490722656,-0.0003237724304199219,-0.020106017589569092
1712257623724384800,6.328384765625,-0.06034088134765625,-0.022778987884521484,-0.05315956473350525
1712257623734383600,6.338383544921875,-0.040999412536621094,-0.0018608570098876953,-0.009371280670166016
1712257623744382200,6.34838232421875,-0.03370094299316406,0.00019693374633789062,0.03381919860839844
1712257623754381000,6.358381103515625,0.019089698791503906,-0.021602153778076172,0.007011771202087402
1712257623764379600,6.368379638671875,-0.0003643035888671875,-0.00634455680847168,-0.036459267139434814
1712257623774378500,6.37837841796875,0.009053230285644531,-0.015533208847045898,-0.0384899377822876
1712257623784377300,6.38837744140625,0.03747844696044922,-0.0028612613677978516,-0.0039711594581604
1712257623794376000,6.3983759765625,0.03940868377685547,0.007845878601074219,0.009041845798492432
1712257623804374800,6.408374755859375,0.09409618377685547,0.006368875503540039,0.014784276485443115
1712257623814373400,6.418373291015625,0.10087871551513672,0.0312654972076416,0.013425827026367188
1712257623824372200,6.428372314453125,0.031195640563964844,0.04366946220397949,0.01755744218826294
1712257623834370800,6.438370849609375,-0.0311126708984375,0.0004725456237792969,-0.00709158182144165
1712257623844369700,6.44836962890625,-0.028676986694335938,0.012156486511230469,-0.015566915273666382
1712257623854368300,6.4583681640625,0.03386497497558594,0.001725912094116211,0.022990942001342773
1712257623864367000,6.4683671875,0.05815601348876953,-0.013448715209960938,0.055453479290008545
1712257623874366000,6.478365966796875,0.012821197509765625,0.00551295280456543,0.06585359573364258
1712257623884364800,6.48836474609375,-0.07791614532470703,-0.01644158363342285,0.0018020868301391602
1712257623894363400,6.49836328125,-0.09918689727783203,-0.026622533798217773,-0.004093825817108154
1712257623904362200,6.5083623046875,-0.03436756134033203,-0.029349088668823242,-0.01706928014755249
1712257623914361000,6.518361083984375,0.0037622451782226562,-0.00003147125244140625,0.0063301920890808105
1712257623924359700,6.528359619140625,0.00830841064453125,-0.03039264678955078,0.03447902202606201
1712257623934358500,6.538358642578125,-0.0039691925048828125,-0.0485072135925293,0.02850896120071411
1712257623944357000,6.548357177734375,-0.0019903182983398438,-0.030385255813598633,-0.039822518825531006
1712257623954356000,6.55835595703125,-0.01681041717529297,-0.03146934509277344,-0.018532872200012207
1712257623964354600,6.5683544921875,-0.009981155395507812,-0.02573704719543457,0.04400104284286499
1712257623974353400,6.578353515625,-0.031846046447753906,-0.03676271438598633,-0.00427401065826416
1712257623984352300,6.588352294921875,-0.04667854309082031,-0.04029083251953125,-0.027948617935180664
1712257623994351000,6.59835107421875,-0.044951438903808594,-0.05058646202087402,-0.021923810243606567
1712257624004349700,6.608349609375,-0.021994590759277344,-0.026489973068237305,-0.039709657430648804
1712257624014348500,6.6183486328125,0.0009164810180664062,-0.004681587219238281,-0.04778757691383362
1712257624024347400,6.628347412109375,0.02625560760498047,0.0026023387908935547,-0.012302577495574951
1712257624034346200,6.63834619140625,-0.008026123046875,-0.0002541542053222656,-0.0013603568077087402
1712257624044345000,6.648344970703125,-0.006161689758300781,0.010662317276000977,0.006752908229827881
1712257624054344200,6.65834423828125,0.04144287109375,0.02101922035217285,0.009241282939910889
1712257624064343000,6.668343017578125,0.06760120391845703,0.01685643196105957,0.04671722650527954
1712257624074342000,6.678341796875,0.06036567687988281,0.022022485733032227,0.04286700487136841
1712257624084340700,6.6883408203125,-0.03290557861328125,0.021955013275146484,0.005473136901855469
1712257624094339600,6.698339599609375,-0.05411529541015625,0.023595571517944336,0.011371493339538574
1712257624104338400,6.70833837890625,-0.03434944152832031,0.024617910385131836,-0.012390077114105225
1712257624114337300,6.718337158203125,0.016579627990722656,0.013570785522460938,-0.002656996250152588
1712257624124336000,6.728336181640625,0.04816722869873047,0.0030014514923095703,-0.011774301528930664
1712257624134335000,6.7383349609375,0.048361778259277344,0.00017189979553222656,-0.029216498136520386
1712257624144333800,6.748333740234375,-0.042654991149902344,-0.014249086380004883,-0.011512041091918945
1712257624154332700,6.758332763671875,-0.03790760040283203,-0.01913738250732422,-0.0029543638229370117
1712257624164331500,6.76833154296875,-0.01643085479736328,-0.007102489471435547,0.007481813430786133
1712257624174330400,6.778330322265625,0.045703887939453125,-0.01391744613647461,0.031159639358520508
1712257624184329200,6.7883291015625,0.06958484649658203,-0.020843982696533203,0.0521848201751709
1712257624194328000,6.798328125,0.05019950866699219,-0.031949758529663086,0.0412447452545166
1712257624204327000,6.808326904296875,-0.014728546142578125,-0.05008435249328613,0.011073172092437744
1712257624214325800,6.81832568359375,-0.08200836181640625,-0.04204678535461426,-0.006811797618865967
1712257624224324600,6.82832470703125,-0.09876251220703125,-0.049065589904785156,0.004024863243103027
1712257624234323500,6.838323486328125,-0.07001495361328125,-0.048799991607666016,-0.005127906799316406
1712257624244322300,6.848322265625,-0.07732009887695312,0.0022008419036865234,0.014064192771911621
1712257624254321200,6.858321044921875,-0.07497215270996094,0.014642953872680664,0.0311051607131958
1712257624264320000,6.868320068359375,-0.0989980697631836,-0.004015207290649414,0.03908330202102661
1712257624274318800,6.87831884765625,-0.046387672424316406,-0.010846853256225586,0.03081589937210083
1712257624284318000,6.88831787109375,-0.03686332702636719,0.015813350677490234,0.0034218430519104004
1712257624294316500,6.898316650390625,-0.04150962829589844,0.03701424598693848,-0.01847696304321289
1712257624304315400,6.9083154296875,-0.1584482192993164,-0.03590226173400879,-0.037539660930633545
1712257624314314200,6.918314208984375,-0.12928485870361328,-0.013167619705200195,-0.07825097441673279
1712257624324313000,6.92831298828125,0.03850269317626953,0.014959573745727539,-0.11849182844161987
1712257624334311700,6.938311767578125,0.14365291595458984,0.0679023265838623,-0.10713356733322144
1712257624344310500,6.948310546875,0.1242666244506836,0.04632735252380371,-0.052639394998550415
1712257624354309000,6.95830908203125,0.05235099792480469,0.029029130935668945,0.012128174304962158
1712257624364308000,6.968307861328125,-0.019336700439453125,0.049585580825805664,0.02308201789855957
1712257624374306600,6.978306640625,0.028939247131347656,0.05539202690124512,0.053587913513183594
1712257624384305400,6.988305419921875,0.10364532470703125,0.07093143463134766,0.0551069974899292
1712257624394304000,6.998303955078125,0.09705066680908203,0.03849434852600098,0.06972748041152954
1712257624404302800,7.008302734375,0.02591991424560547,0.017873764038085938,0.0235670804977417
1712257624414301400,7.018301513671875,0.0075092315673828125,-0.0005178451538085938,0.04942893981933594
1712257624424300300,7.02830029296875,-0.044411659240722656,-0.030805349349975586,0.0220528244972229
1712257624434299000,7.038298828125,-0.09662723541259766,-0.01727128028869629,-0.026260018348693848
1712257624444297700,7.048297607421875,-0.09392261505126953,-0.04904532432556152,-0.010838210582733154
1712257624454296600,7.058296630859375,-0.09399986267089844,-0.03678178787231445,-0.004144906997680664
1712257624464295200,7.068295166015625,-0.07756423950195312,-0.03110337257385254,-0.039946943521499634
1712257624474294000,7.0782939453125,-0.05171489715576172,-0.04657459259033203,-0.017920613288879395
1712257624484292900,7.08829296875,-0.016386032104492188,-0.06659841537475586,0.0043357014656066895
1712257624494291500,7.09829150390625,-0.019585609436035156,-0.054862260818481445,-0.02858102321624756
1712257624504290300,7.108290283203125,-0.0014181137084960938,-0.04023385047912598,-0.030299007892608643
1712257624514289200,7.1182890625,0.06704235076904297,-0.008847713470458984,-0.02023470401763916
1712257624524287700,7.128287841796875,0.13797760009765625,-0.030283689498901367,0.05401337146759033
1712257624534286600,7.13828662109375,0.12749767303466797,-0.03000664710998535,0.08193403482437134
1712257624544285200,7.14828515625,0.05003833770751953,-0.029785633087158203,0.011008381843566895
1712257624554284000,7.158283935546875,-0.012868881225585938,-0.0349431037902832,-0.01883786916732788
1712257624564283000,7.168282958984375,0.003253936767578125,-0.008983850479125977,-0.0010225772857666016
1712257624574281500,7.178281494140625,0.0265960693359375,-0.009487390518188477,0.009753644466400146
1712257624584280300,7.1882802734375,0.03803253173828125,0.013782978057861328,-0.005901336669921875
1712257624594279200,7.198279052734375,-0.019783973693847656,0.007670164108276367,0.0008491277694702148
1712257624604277800,7.20827783203125,-0.07026958465576172,0.003400564193725586,-0.029890120029449463
1712257624614276600,7.218276611328125,-0.07991981506347656,-0.0085296630859375,-0.04805278778076172
1712257624624275200,7.228275146484375,-0.03923988342285156,0.024956226348876953,-0.030688226222991943
1712257624634274000,7.238274169921875,-0.00321197509765625,0.03659391403198242,0.04601120948791504
1712257624644273000,7.24827294921875,0.02350902557373047,-0.0025420188903808594,0.07076585292816162
1712257624654271500,7.258271484375,0.03832435607910156,0.025365591049194336,0.046518802642822266
1712257624664270300,7.268270263671875,0.026726722717285156,0.029506683349609375,0.03208357095718384
1712257624674269200,7.278269287109375,-0.003949165344238281,0.01422429084777832,0.0012320876121520996
1712257624684267800,7.288267822265625,-0.005840301513671875,0.0010364055633544922,-0.023906171321868896
1712257624694266600,7.2982666015625,0.027982711791992188,0.02661442756652832,-0.002944767475128174
1712257624704265200,7.30826513671875,0.044953346252441406,0.02847743034362793,0.023023128509521484
1712257624714264000,7.31826416015625,0.042786598205566406,0.008768796920776367,0.0272749662399292
1712257624724262700,7.3282626953125,0.002349853515625,0.005747318267822266,0.002592802047729492
1712257624734261500,7.338261474609375,0.019394874572753906,-0.014128446578979492,-0.021840810775756836
1712257624744260400,7.34826025390625,0.012383460998535156,-0.03131222724914551,0.004158079624176025
1712257624754259000,7.358259033203125,-0.04001617431640625,-0.01757669448852539,0.010474801063537598
1712257624764257800,7.3682578125,-0.03012371063232422,-0.008785724639892578,-0.0020990967750549316
1712257624774256400,7.37825634765625,-0.049010276794433594,-0.004732370376586914,-0.011776149272918701
1712257624784255200,7.388255126953125,-0.051321983337402344,0.014113903045654297,0.007838964462280273
1712257624794253800,7.39825390625,-0.0942697525024414,-0.012792587280273438,0.008733570575714111
1712257624804252700,7.408252685546875,-0.09655284881591797,-0.025247812271118164,0.0025565624237060547
1712257624814251300,7.418251220703125,-0.07498359680175781,-0.022988557815551758,-0.028112471103668213
1712257624824250000,7.42825,-0.012755393981933594,-0.003753662109375,-0.025805294513702393
1712257624834248700,7.438248779296875,-0.012856483459472656,0.018091440200805664,0.017202377319335938
1712257624844247600,7.44824755859375,0.02075672149658203,-0.008400917053222656,0.06923562288284302
1712257624854246400,7.458246337890625,0.02811908721923828,-0.01819443702697754,0.04595750570297241
1712257624864245000,7.468244873046875,0.04015064239501953,-0.006075382232666016,-0.013373196125030518
1712257624874243800,7.478243896484375,0.0112457275390625,0.004170417785644531,-0.007263541221618652
1712257624884242700,7.48824267578125,-0.0080108642578125,-0.00498509407043457,0.018299996852874756
1712257624894241300,7.4982412109375,-0.015187263488769531,-0.007203817367553711,-0.028330326080322266
1712257624904240000,7.508240234375,0.02320575714111328,-0.0048809051513671875,-0.026941657066345215
1712257624914239000,7.518239013671875,0.011246681213378906,0.0072019100189208984,0.0033447742462158203
1712257624924237600,7.528237548828125,-0.03886890411376953,0.00442957878112793,0.0028160810470581055
1712257624934236400,7.538236328125,-0.055377960205078125,-0.024933576583862305,-0.026331841945648193
1712257624944235000,7.548235107421875,0.0189208984375,-0.01567554473876953,-0.016135692596435547
1712257624954233900,7.55823388671875,0.04035472869873047,-0.0034627914428710938,0.005882561206817627
1712257624964232400,7.568232421875,-0.012543678283691406,-0.03645014762878418,-0.0055092573165893555
1712257624974231300,7.578231201171875,-0.03204345703125,-0.045270442962646484,0.0005629062652587891
1712257624984230100,7.588230224609375,0.005825042724609375,-0.015485048294067383,0.054322242736816406
1712257624994228700,7.598228759765625,0.010230064392089844,0.009698629379272461,0.01983487606048584
1712257625004227600,7.6082275390625,-0.02598285675048828,-0.00845193862915039,-0.005062520503997803
1712257625014226400,7.618226318359375,0.0025453567504882812,0.0066454410552978516,-0.02274501323699951
1712257625024225300,7.628225341796875,0.06711769104003906,0.004549980163574219,0.01980501413345337
1712257625034223900,7.638223876953125,0.04063987731933594,0.021771669387817383,-0.006914317607879639
1712257625044222700,7.64822265625,-0.03602027893066406,0.01469111442565918,0.0003738999366760254
1712257625054221600,7.6582216796875,-0.045627593994140625,-0.004445075988769531,-0.042302489280700684
1712257625064220400,7.668220458984375,-0.031179428100585938,0.0167539119720459,-0.027257025241851807
1712257625074219300,7.67821923828125,-0.05238819122314453,0.006128787994384766,0.004397094249725342
1712257625084218000,7.688218017578125,-0.03750038146972656,0.011940240859985352,-0.0009607672691345215
1712257625094217200,7.69821728515625,-0.03696155548095703,0.020150423049926758,-0.02820146083831787
1712257625104216300,7.70821630859375,0.03055858612060547,0.04283285140991211,-0.00240933895111084
1712257625114215200,7.718215087890625,0.09567070007324219,0.029616355895996094,0.004363656044006348
1712257625124214300,7.72821435546875,0.06484127044677734,0.02397465705871582,0.011687099933624268
1712257625134213400,7.73821337890625,0.057830810546875,0.020976543426513672,0.01475512981414795
1712257625144212500,7.74821240234375,0.05312156677246094,0.0014688968658447266,0.020337343215942383
1712257625154211600,7.758211669921875,0.05328845977783203,-0.006235361099243164,0.018243253231048584
1712257625164210700,7.768210693359375,-0.018457412719726562,-0.01850128173828125,0.023418128490447998
1712257625174209800,7.778209716796875,-0.03028106689453125,-0.026099443435668945,0.02342468500137329
1712257625184208600,7.788208740234375,-0.023001670837402344,-0.011860847473144531,0.02015584707260132
1712257625194207700,7.798207763671875,-0.0037689208984375,-0.011827468872070312,0.023434758186340332
1712257625204206800,7.808206787109375,-0.032402992248535156,-0.03810429573059082,0.004726052284240723
1712257625214206000,7.8182060546875,-0.05145454406738281,-0.045200347900390625,-0.00462949275970459
1712257625224205000,7.828205078125,-0.09208488464355469,-0.04264950752258301,-0.013898193836212158
1712257625234204200,7.8382041015625,-0.0966653823852539,-0.040551185607910156,-0.07065021991729736
1712257625244203300,7.848203369140625,-0.0009031295776367188,-0.0452420711517334,-0.0160025954246521
1712257625254202400,7.858202392578125,0.001190185546875,-0.044397830963134766,0.003149867057800293
1712257625264201500,7.868201416015625,-0.030443191528320312,-0.04065871238708496,0.013218343257904053
1712257625274200600,7.87820068359375,-0.04525470733642578,-0.025098323822021484,0.0015574097633361816
1712257625284199700,7.88819970703125,-0.05034637451171875,0.021248817443847656,-0.010407805442810059
1712257625294198800,7.89819873046875,-0.057623863220214844,0.023892641067504883,-0.0031458139419555664
1712257625304198000,7.908197998046875,-0.04312419891357422,0.03313565254211426,-0.005779147148132324
1712257625314197000,7.918197021484375,-0.08825969696044922,0.053745269775390625,-0.008534491062164307
1712257625324195800,7.92819580078125,-0.09246158599853516,0.032976388931274414,-0.05183589458465576
1712257625334195000,7.93819482421875,-0.07506370544433594,0.019111156463623047,-0.04883986711502075
1712257625344194000,7.948194091796875,-0.050617218017578125,0.024676084518432617,0.014568030834197998
1712257625354193200,7.958193115234375,-0.011804580688476562,0.0399630069732666,0.014900624752044678
1712257625364192300,7.968192138671875,0.024666786193847656,0.021685123443603516,0.026614725589752197
1712257625374191000,7.978191162109375,0.003673553466796875,0.008249521255493164,0.03084951639175415
1712257625384190000,7.98818994140625,0.06407833099365234,0.014000415802001953,0.003922402858734131
1712257625394188800,7.998188720703125,0.050009727478027344,0.02757549285888672,0.022817254066467285
