time,seconds_elapsed,z,y,x
1715439465612933600,0.12393359375,-0.15108966827392578,0.3076658248901367,-0.20855867862701416
1715439465622890000,0.133889892578125,-0.6308393478393555,-0.18271756172180176,0.4840708374977112
1715439465632881200,0.143881103515625,-0.6834144592285156,-0.22809672355651855,1.0146335363388062
1715439465642906400,0.15390625,-1.1253814697265625,-0.11944389343261719,1.2437020540237427
1715439465652963800,0.1639638671875,-0.959324836730957,-0.07126951217651367,1.1842060089111328
1715439465663050000,0.174050048828125,-0.9946327209472656,0.14196062088012695,0.5389923453330994
1715439465673160700,0.18416064453125,-0.9136838912963867,0.3329010009765625,-0.28166255354881287
1715439465683290400,0.194290283203125,-0.7536211013793945,0.49943113327026367,-0.918724536895752
1715439465693433600,0.20443359375,-0.6616086959838867,0.6213793754577637,-1.1193876266479492
1715439465703584300,0.214584228515625,-0.528752326965332,0.7013258934020996,-1.0672295093536377
1715439465713736400,0.224736328125,-0.3784303665161133,0.7224125862121582,-0.8034586310386658
1715439465723777000,0.234777099609375,-0.4471597671508789,0.5376739501953125,-0.4161783456802368
1715439465733783300,0.244783203125,-0.45117759704589844,0.1520380973815918,0.0746898353099823
1715439465743789300,0.254789306640625,-0.5165386199951172,-0.011467456817626953,0.34519290924072266
1715439465753795600,0.264795654296875,-0.5768270492553711,-0.07743501663208008,0.3921127915382385
1715439465763801600,0.274801513671875,-0.761810302734375,-0.07188653945922852,0.32147493958473206
1715439465773807900,0.284807861328125,-0.9025182723999023,-0.03775596618652344,0.16519898176193237
1715439465783814000,0.29481396484375,-0.9373178482055664,-0.020902633666992188,0.08457228541374207
1715439465793820200,0.304820068359375,-0.7370471954345703,0.026590824127197266,0.02014338970184326
1715439465803826200,0.314826171875,-0.4660930633544922,0.10307979583740234,-0.11730307340621948
1715439465813832400,0.32483251953125,-0.24507808685302734,0.16872930526733398,-0.2079210877418518
1715439465823838500,0.33483837890625,0.017602920532226562,0.18942689895629883,-0.2638436555862427
1715439465833844700,0.3448447265625,0.16019344329833984,0.19235515594482422,-0.2807977795600891
1715439465843850800,0.354850830078125,0.1686077117919922,0.13118934631347656,-0.23907965421676636
1715439465853857000,0.36485693359375,0.2974977493286133,0.1658024787902832,-0.22066235542297363
1715439465863863000,0.374863037109375,0.4045886993408203,0.17600297927856445,-0.2689887285232544
1715439465873869300,0.384869384765625,0.45397186279296875,0.1569366455078125,-0.2787030339241028
1715439465883875300,0.394875244140625,0.5822525024414062,0.21181631088256836,-0.33526068925857544
1715439465893881600,0.404881591796875,0.6386289596557617,0.23089265823364258,-0.40100598335266113
1715439465903888000,0.414887939453125,0.7231912612915039,0.2706718444824219,-0.36275315284729004
1715439465913894000,0.424893798828125,0.7984542846679688,0.2691464424133301,-0.23554712533950806
1715439465923900200,0.434900146484375,0.8278942108154297,0.18874597549438477,-0.2083180546760559
1715439465933906200,0.44490625,0.845738410949707,0.10036492347717285,-0.3254315257072449
1715439465943912400,0.454912353515625,0.8665800094604492,0.06404447555541992,-0.4530026912689209
1715439465953918500,0.46491845703125,0.805943489074707,0.08776497840881348,-0.5194754004478455
1715439465963924700,0.4749248046875,0.7354326248168945,0.14721345901489258,-0.443969190120697
1715439465973930800,0.4849306640625,0.5092811584472656,0.17307758331298828,-0.2623664140701294
1715439465983937000,0.49493701171875,0.19501876831054688,0.16432762145996094,-0.13002336025238037
1715439465993943000,0.504943115234375,-0.04737663269042969,0.18483257293701172,-0.07787162065505981
1715439466003949300,0.51494921875,-0.1873779296875,0.23990249633789062,-0.0016608238220214844
1715439466013955300,0.524955322265625,-0.09115028381347656,0.6476411819458008,0.46722906827926636
1715439466023961600,0.534961669921875,-0.13805389404296875,0.39129018783569336,0.12682610750198364
1715439466033967600,0.544967529296875,-0.09136676788330078,0.16589117050170898,-0.11689972877502441
1715439466043974000,0.554973876953125,-0.032988548278808594,0.22008085250854492,-0.11766499280929565
1715439466053980000,0.56497998046875,-0.05255889892578125,0.2201228141784668,-0.15971684455871582
1715439466063986200,0.574986083984375,-0.26169586181640625,-0.11446785926818848,-0.39676785469055176
1715439466073992200,0.5849921875,-0.14353275299072266,0.044092655181884766,-0.20240655541419983
1715439466083998500,0.59499853515625,0.1983470916748047,-0.09501028060913086,0.13588616251945496
1715439466094004500,0.60500439453125,0.3745889663696289,-0.2121737003326416,0.25139397382736206
1715439466104010800,0.6150107421875,0.42144012451171875,-0.21948695182800293,0.1050901785492897
1715439466114016800,0.625016845703125,0.4309873580932617,-0.2331540584564209,-0.15695413947105408
1715439466124023000,0.63502294921875,0.4088315963745117,-0.21169781684875488,-0.37877023220062256
1715439466134029000,0.645029052734375,0.4218111038208008,-0.18990421295166016,-0.3260048031806946
1715439466144035300,0.655035400390625,0.38947391510009766,-0.09301900863647461,-0.13224229216575623
1715439466154041300,0.665041259765625,0.2983131408691406,0.021530628204345703,0.05174994468688965
1715439466164047600,0.675047607421875,0.12996768951416016,0.06497311592102051,0.2237517535686493
1715439466174053600,0.6850537109375,-0.11063575744628906,0.07825422286987305,0.3139301836490631
1715439466184060000,0.695059814453125,-0.31021785736083984,0.06390786170959473,0.2817210853099823
1715439466194066000,0.70506591796875,-0.38983154296875,0.05655193328857422,0.1989305168390274
1715439466204072200,0.715072265625,-0.3936958312988281,0.07482385635375977,0.13650429248809814
1715439466214078500,0.725078369140625,-0.3460807800292969,0.03716683387756348,0.10843552649021149
1715439466224084700,0.735084716796875,-0.26129913330078125,-0.009763240814208984,0.10411903262138367
1715439466234090800,0.7450908203125,-0.27205371856689453,-0.00919961929321289,0.08397819101810455
1715439466244097000,0.755096923828125,-0.325469970703125,0.0626683235168457,0.03762165457010269
1715439466254103300,0.765103271484375,-0.3506641387939453,0.1022193431854248,-0.015567988157272339
1715439466264109300,0.775109375,-0.37650394439697266,0.09138631820678711,-0.0034718066453933716
1715439466274115600,0.785115478515625,-0.22253131866455078,0.025739431381225586,0.127191960811615
1715439466284121900,0.795121826171875,0.13630390167236328,-0.10971999168395996,0.1462324559688568
1715439466294128000,0.805128173828125,-0.06204795837402344,0.08261561393737793,-0.15763476490974426
1715439466304134100,0.815134033203125,-0.05514240264892578,0.3199639320373535,0.1103731244802475
1715439466314140400,0.825140380859375,0.017256736755371094,0.2763388156890869,0.17287874221801758
1715439466324146700,0.835146728515625,0.08797073364257812,0.1922283172607422,0.11732085049152374
1715439466334152700,0.845152587890625,0.19959163665771484,0.16680240631103516,0.055934496223926544
1715439466344159000,0.855158935546875,0.24791812896728516,0.25539422035217285,-0.05019937455654144
1715439466354165200,0.865165283203125,0.2669944763183594,0.2252826690673828,-0.12618528306484222
1715439466364171300,0.875171142578125,0.26240062713623047,0.14821505546569824,-0.13799268007278442
1715439466374177500,0.885177490234375,0.20656299591064453,0.08552312850952148,-0.058084771037101746
1715439466384183800,0.895183837890625,0.09552764892578125,0.055994272232055664,-0.05421571433544159
1715439466394190000,0.905190185546875,-0.04670429229736328,0.07423925399780273,-0.12284960597753525
1715439466404196000,0.915196044921875,-0.1776409149169922,0.07918858528137207,-0.1787092238664627
1715439466414202400,0.925202392578125,-0.15161705017089844,0.0901796817779541,-0.16552746295928955
1715439466424208600,0.935208740234375,0.033827781677246094,0.11097240447998047,-0.07415667176246643
1715439466434214700,0.945214599609375,0.23092079162597656,0.15354514122009277,0.011293120682239532
1715439466444221000,0.955220947265625,0.29879188537597656,0.15019774436950684,0.044091563671827316
1715439466454227200,0.965227294921875,0.3010683059692383,0.11515355110168457,0.024642836302518845
1715439466464233500,0.9752333984375,0.29538536071777344,0.11475276947021484,0.005602888762950897
1715439466474239500,0.985239501953125,0.3052644729614258,0.11112523078918457,0.0063692182302474976
1715439466484245800,0.995245849609375,0.28308963775634766,0.09086346626281738,0.022323422133922577
1715439466494252000,1.005251953125,0.1865520477294922,0.0883474349975586,0.06781613081693649
1715439466504258000,1.015258056640625,0.01629924774169922,0.0905921459197998,0.13327184319496155
1715439466514264300,1.025264404296875,-0.15181636810302734,0.05686211585998535,0.13814586400985718
1715439466524270600,1.0352705078125,-0.3185129165649414,0.036458492279052734,0.08255914598703384
1715439466534276900,1.04527685546875,-0.3946371078491211,0.02511000633239746,0.008569866418838501
1715439466544283000,1.055282958984375,-0.34862518310546875,0.06474804878234863,-0.01440180093050003
1715439466554289200,1.0652890625,-0.15845203399658203,0.10148739814758301,-0.058292828500270844
1715439466564295400,1.07529541015625,0.08963584899902344,0.16144418716430664,0.013841677457094193
1715439466574301400,1.085301513671875,0.24962425231933594,0.17142176628112793,0.03708765283226967
1715439466584307700,1.0953076171875,0.229248046875,0.03231620788574219,-0.00048271939158439636
1715439466594314000,1.10531396484375,0.07322502136230469,-0.054010868072509766,0.03484002500772476
1715439466604320300,1.1153203125,-0.09464740753173828,-0.057991981506347656,0.12566661834716797
1715439466614326300,1.125326171875,-0.22304248809814453,-0.03587698936462402,0.09215132147073746
1715439466624332500,1.13533251953125,-0.3413124084472656,0.022365093231201172,0.012473192065954208
1715439466634338800,1.1453388671875,-0.3082895278930664,0.08768820762634277,-0.06218089908361435
1715439466644344800,1.1553447265625,-0.15875911712646484,0.06408572196960449,-0.11954449117183685
1715439466654351000,1.16535107421875,0.012048721313476562,0.021471500396728516,-0.27856120467185974
1715439466664357400,1.175357421875,0.11025238037109375,0.043290138244628906,-0.28423258662223816
1715439466674363600,1.18536376953125,0.03810882568359375,0.048619985580444336,-0.11381363868713379
1715439466684369700,1.19536962890625,-0.07504463195800781,-0.026553630828857422,-0.0313381552696228
1715439466694376000,1.2053759765625,-0.17733287811279297,-0.08048152923583984,-0.05848219245672226
1715439466704382200,1.21538232421875,-0.2742433547973633,-0.06490492820739746,-0.03296172618865967
1715439466714388200,1.22538818359375,-0.27190303802490234,-0.022783756256103516,0.01280238851904869
1715439466724394500,1.23539453125,-0.21892261505126953,-0.011345863342285156,0.036073051393032074
1715439466734400800,1.24540087890625,-0.1347789764404297,0.054201602935791016,0.04696502909064293
1715439466744407000,1.255406982421875,-0.029287338256835938,-0.029790878295898438,0.06295979768037796
1715439466754413000,1.2654130859375,-0.18159103393554688,0.047835350036621094,0.02783863991498947
1715439466764419300,1.27541943359375,-0.2390003204345703,0.16225647926330566,0.03451148793101311
1715439466774425600,1.285425537109375,-0.11807632446289062,0.23225069046020508,-0.2689622938632965
1715439466784431600,1.295431640625,0.7125530242919922,0.1771712303161621,-0.3098475933074951
1715439466794438000,1.30543798828125,1.1574821472167969,0.13849234580993652,-0.40958788990974426
1715439466804444200,1.315444091796875,0.8647251129150391,0.032486915588378906,0.1668962985277176
1715439466814450200,1.3254501953125,0.6406955718994141,-0.03652334213256836,0.3146120607852936
1715439466824456400,1.33545654296875,0.1911325454711914,0.11294889450073242,0.03298119455575943
1715439466834462700,1.345462646484375,-0.052918434143066406,0.15565919876098633,-0.14513032138347626
1715439466844469000,1.355468994140625,-0.1331634521484375,0.09032726287841797,-0.17213353514671326
1715439466854475000,1.36547509765625,-0.17943859100341797,0.04108452796936035,-0.11150623112916946
1715439466864481300,1.375481201171875,-0.26763057708740234,0.05475211143493652,-0.06156504154205322
1715439466874487600,1.385487548828125,-0.29839611053466797,0.1262502670288086,-0.08715004473924637
1715439466884493600,1.39549365234375,-0.23498058319091797,0.16504740715026855,-0.10687435418367386
1715439466894499800,1.405499755859375,-0.10234737396240234,0.15717482566833496,-0.0404614582657814
1715439466904506000,1.415506103515625,0.04236602783203125,0.08783316612243652,-0.030817240476608276
1715439466914512400,1.425512451171875,0.10547065734863281,0.04566454887390137,0.09401065856218338
1715439466924518400,1.435518310546875,0.12128734588623047,0.04895925521850586,0.14179249107837677
1715439466934524700,1.445524658203125,0.029044151306152344,0.0789954662322998,0.04103425145149231
1715439466944530700,1.45553076171875,-0.09462833404541016,0.07546830177307129,-0.04207441210746765
1715439466954537000,1.465536865234375,-0.15540313720703125,0.05874347686767578,-0.0900658518075943
1715439466964543000,1.47554296875,-0.1732006072998047,0.0338444709777832,-0.046958714723587036
1715439466974549200,1.48554931640625,-0.16271686553955078,0.0006237030029296875,0.06930751353502274
1715439466984555300,1.49555517578125,-0.03460216522216797,0.04792666435241699,0.18226173520088196
1715439466994561500,1.5055615234375,0.04941749572753906,0.07475996017456055,0.22419299185276031
1715439467004567600,1.515567626953125,-0.07034492492675781,0.011822223663330078,0.18752853572368622
1715439467014573800,1.52557373046875,-0.2831611633300781,-0.056624412536621094,0.06245627999305725
1715439467024579800,1.535579833984375,-0.47531986236572266,-0.10461759567260742,-0.025297269225120544
1715439467034586000,1.545586181640625,-0.44026756286621094,-0.08933663368225098,-0.054602816700935364
1715439467044592000,1.555592041015625,-0.24248981475830078,0.014875411987304688,-0.16047853231430054
1715439467054598400,1.565598388671875,-0.05835151672363281,0.12002968788146973,-0.20705291628837585
1715439467064604400,1.5756044921875,0.10335922241210938,0.1352825164794922,-0.2396794855594635
1715439467074610700,1.585610595703125,0.1110982894897461,0.12310290336608887,-0.3572048246860504
1715439467084616700,1.59561669921875,0.014847755432128906,0.08313298225402832,-0.28798723220825195
1715439467094623000,1.605623046875,0.04279041290283203,0.010067939758300781,-0.10355672240257263
1715439467104629000,1.61562890625,0.033156394958496094,0.007094144821166992,-0.09581682085990906
1715439467114635300,1.62563525390625,0.034310340881347656,0.11381888389587402,-0.2526342570781708
1715439467124641300,1.635641357421875,0.1876850128173828,0.1294722557067871,-0.16121402382850647
1715439467134647600,1.6456474609375,0.3354454040527344,0.11638665199279785,-0.2124125063419342
1715439467144653600,1.655653564453125,0.42606449127197266,0.14035320281982422,-0.23423413932323456
1715439467154659800,1.665659912109375,0.3946514129638672,0.1346435546875,-0.1504899263381958
1715439467164665900,1.675665771484375,0.29494667053222656,0.03414273262023926,-0.03736618161201477
1715439467174672100,1.685672119140625,0.08036136627197266,-0.025745630264282227,0.05742529034614563
1715439467184678100,1.69567822265625,-0.05488872528076172,-0.07647848129272461,-0.0048226118087768555
1715439467194684400,1.705684326171875,-0.11246871948242188,-0.10781168937683105,-0.1053454577922821
1715439467204690400,1.7156904296875,-0.16474628448486328,-0.01981806755065918,-0.13533185422420502
1715439467214696700,1.72569677734375,-0.1415243148803711,0.059458017349243164,-0.13823173940181732
1715439467224702700,1.73570263671875,-0.04397773742675781,0.10642766952514648,-0.0803939551115036
1715439467234709000,1.745708984375,0.027935028076171875,0.10712504386901855,0.03068874031305313
1715439467244715000,1.755715087890625,0.17869949340820312,0.06082749366760254,-0.1551184356212616
1715439467254721300,1.76572119140625,0.03500556945800781,0.08130955696105957,-0.09732743352651596
1715439467264727600,1.7757275390625,-0.13019371032714844,0.03200531005859375,-0.05269507318735123
1715439467274733600,1.785733642578125,-0.20396041870117188,0.0236508846282959,-0.026231691241264343
1715439467284739800,1.79573974609375,-0.2065277099609375,0.003373861312866211,-0.050921157002449036
1715439467294746000,1.80574609375,-0.2426748275756836,-0.000377655029296875,-0.06031741201877594
1715439467304752400,1.81575244140625,-0.31671142578125,0.02202606201171875,-0.0646791160106659
1715439467314758400,1.82575830078125,-0.3574714660644531,0.061026811599731445,-0.022138237953186035
1715439467324764700,1.8357646484375,-0.31360721588134766,0.13959670066833496,0.005639165639877319
1715439467334771000,1.84577099609375,-0.21444988250732422,0.16663312911987305,-0.02720557153224945
1715439467344777000,1.85577685546875,-0.01806163787841797,0.15094327926635742,0.0411485955119133
1715439467354783200,1.865783203125,0.1096353530883789,0.12463617324829102,0.10107111930847168
1715439467364789500,1.87578955078125,0.11801910400390625,0.1160423755645752,0.1149362325668335
1715439467374795800,1.885795654296875,0.17858505249023438,0.09661245346069336,0.13582967221736908
1715439467384801800,1.8958017578125,0.2953529357910156,0.09889578819274902,0.12089622020721436
1715439467394808000,1.90580810546875,0.39684391021728516,0.12694168090820312,0.07962916791439056
1715439467404814300,1.915814453125,0.4080638885498047,0.11409687995910645,0.01169247180223465
1715439467414820400,1.9258203125,0.29726600646972656,0.08075785636901855,-0.07459287345409393
1715439467424826600,1.93582666015625,0.16026878356933594,0.08023858070373535,-0.15688657760620117
1715439467434833000,1.9458330078125,0.0913534164428711,0.061180830001831055,-0.1941278576850891
1715439467444839200,1.955839111328125,0.009207725524902344,0.0337064266204834,-0.14495715498924255
1715439467454845200,1.96584521484375,-0.039017677307128906,-0.02037644386291504,-0.08593571931123734
1715439467464851500,1.9758515625,-0.025659561157226562,-0.04872465133666992,-0.03100096434354782
1715439467474857700,1.985857666015625,0.001247406005859375,-0.00016736984252929688,-0.0026782453060150146
1715439467484863700,1.99586376953125,0.07458114624023438,0.12833142280578613,-0.03685559332370758
1715439467494870000,2.0058701171875,0.31648826599121094,0.21142935752868652,-0.25438037514686584
1715439467504876300,2.015876220703125,0.29603004455566406,0.09801435470581055,-0.2218218594789505
1715439467514882600,2.025882568359375,0.1260213851928711,0.007564544677734375,-0.09572385251522064
1715439467524888600,2.035888671875,0.114959716796875,0.04348301887512207,0.14740517735481262
1715439467534894800,2.045894775390625,0.3687763214111328,0.2545640468597412,0.10188411921262741
1715439467544901000,2.055901123046875,0.34203147888183594,0.01956796646118164,-0.18500231206417084
1715439467554907100,2.0659072265625,-0.003284454345703125,-0.050377845764160156,-0.1293071210384369
1715439467564913400,2.075913330078125,-0.07402706146240234,-0.13456344604492188,-0.03726109862327576
1715439467574919700,2.085919677734375,0.054157257080078125,-0.19840288162231445,-0.05524047836661339
1715439467584925700,2.09592578125,0.005560874938964844,-0.11382150650024414,-0.09286154061555862
1715439467594932000,2.105931884765625,-0.10866928100585938,-0.07134246826171875,-0.05525709316134453
1715439467604938200,2.115938232421875,-0.3583564758300781,-0.11646008491516113,0.0008620712906122208
1715439467614944500,2.125944580078125,-0.49210548400878906,-0.13342547416687012,-0.0547834113240242
1715439467624950500,2.135950439453125,-0.4036521911621094,-0.051789283752441406,-0.1608901172876358
1715439467634956800,2.145956787109375,-0.3319110870361328,0.05076885223388672,-0.26309388875961304
1715439467644963000,2.155963134765625,-0.27176761627197266,0.10758018493652344,-0.2959590554237366
1715439467654969000,2.165968994140625,-0.19439315795898438,0.09939098358154297,-0.2600196301937103
1715439467664974600,2.175974609375,-0.1797342300415039,0.08260846138000488,-0.21125701069831848
1715439467674980900,2.18598095703125,-0.18423748016357422,0.07111001014709473,-0.1531185507774353
1715439467684987000,2.19598681640625,-0.10386848449707031,0.05028820037841797,-0.07121653109788895
1715439467694993200,2.2059931640625,0.02743244171142578,0.06129860877990723,0.03502853959798813
1715439467704999400,2.21599951171875,0.07728385925292969,0.04612278938293457,0.08146202564239502
1715439467715005700,2.226005615234375,0.051781654357910156,0.014513731002807617,0.05011651664972305
1715439467725011700,2.23601171875,-0.052840232849121094,-0.008728265762329102,-0.00202329084277153
1715439467735018000,2.24601806640625,-0.1366596221923828,-0.022856473922729492,-0.07997448742389679
1715439467745024300,2.256024169921875,-0.18146800994873047,-0.03655290603637695,-0.11781347543001175
1715439467755030300,2.2660302734375,-0.14578533172607422,-0.04903602600097656,-0.05595658719539642
1715439467765036500,2.27603662109375,-0.059082984924316406,-0.032465219497680664,-0.05669044703245163
1715439467775042800,2.286042724609375,-0.05882740020751953,0.01758098602294922,-0.09084387123584747
1715439467785049000,2.296049072265625,-0.063568115234375,0.044139862060546875,-0.10260052978992462
1715439467795055000,2.30605517578125,-0.054495811462402344,0.09968948364257812,-0.14118170738220215
1715439467805061400,2.316061279296875,-0.03636360168457031,0.14548492431640625,-0.1354077160358429
1715439467815067600,2.326067626953125,-0.009035110473632812,0.13842535018920898,-0.10834838449954987
1715439467825073700,2.33607373046875,-0.000789642333984375,0.08370661735534668,-0.055256400257349014
1715439467835080000,2.346079833984375,-0.006534576416015625,0.0572667121887207,0.04703342169523239
1715439467845086200,2.356086181640625,-0.054248809814453125,0.06324481964111328,0.0763554498553276
1715439467855092500,2.366092529296875,-0.05844306945800781,0.07745718955993652,0.02487262338399887
1715439467865098500,2.376098388671875,-0.08579730987548828,0.08573722839355469,-0.0694710984826088
1715439467875104800,2.386104736328125,-0.12192058563232422,0.06974339485168457,-0.07895757257938385
1715439467885111000,2.396111083984375,-0.1856842041015625,0.00222015380859375,-0.05215324088931084
1715439467895117000,2.406116943359375,-0.2296581268310547,-0.04965925216674805,-0.0023832195438444614
1715439467905123300,2.416123291015625,-0.26836395263671875,-0.06712579727172852,0.00577918253839016
1715439467915129600,2.426129638671875,-0.21722984313964844,-0.059876203536987305,-0.02222863957285881
1715439467925135600,2.436135498046875,-0.10126876831054688,-0.009588479995727539,-0.020217660814523697
1715439467935142000,2.446141845703125,-0.010845184326171875,0.0730133056640625,-0.04486270621418953
1715439467945148200,2.456148193359375,0.026393890380859375,0.14913463592529297,-0.10454213619232178
1715439467955154400,2.466154541015625,-0.021627426147460938,0.14354777336120605,-0.15677987039089203
1715439467965160400,2.476160400390625,-0.1678295135498047,0.03005385398864746,-0.15944570302963257
1715439467975166700,2.486166748046875,-0.44870567321777344,-0.06094241142272949,-0.10902032256126404
1715439467985173000,2.496173095703125,-0.6552543640136719,-0.01073002815246582,-0.059891603887081146
1715439467995179000,2.506178955078125,-0.6476573944091797,0.04246926307678223,-0.0797492116689682
1715439468005185300,2.516185302734375,-0.5233964920043945,0.03189682960510254,-0.13496339321136475
1715439468015191600,2.526191650390625,-0.2885589599609375,0.008645772933959961,-0.0654066652059555
1715439468025197800,2.53619775390625,-0.024231910705566406,-0.015492916107177734,0.009399686008691788
1715439468035203800,2.546203857421875,0.07630729675292969,-0.0037152767181396484,-0.013087745755910873
1715439468045210000,2.556210205078125,0.053363800048828125,0.057805538177490234,-0.06508052349090576
1715439468055216400,2.56621630859375,-0.11486148834228516,-0.00499415397644043,-0.12155317515134811
1715439468065222400,2.576222412109375,-0.3653373718261719,-0.09391331672668457,-0.1440480351448059
1715439468075228700,2.586228759765625,-0.5843544006347656,-0.09325456619262695,-0.20937465131282806
1715439468085235000,2.59623486328125,-0.6692771911621094,-0.05013132095336914,-0.2081221491098404
1715439468095241200,2.6062412109375,-0.7211761474609375,-0.02185797691345215,-0.13587486743927002
1715439468105247200,2.616247314453125,-0.6936836242675781,-0.012227773666381836,-0.11126808822154999
1715439468115253500,2.62625341796875,-0.658595085144043,0.016446828842163086,-0.12059107422828674
1715439468125259800,2.636259765625,-0.597163200378418,-0.0019698143005371094,-0.05086447298526764
1715439468135265800,2.646265869140625,-0.349365234375,-0.044229745864868164,0.017072603106498718
1715439468145272000,2.65627197265625,0.016440391540527344,-0.10265946388244629,-0.025081247091293335
1715439468155278300,2.6662783203125,0.37186336517333984,-0.10866880416870117,-0.1439225673675537
1715439468165284600,2.67628466796875,0.6610870361328125,-0.07438135147094727,-0.15498855710029602
1715439468175290600,2.68629052734375,0.9515981674194336,-0.07787179946899414,-0.20406422019004822
1715439468185297000,2.696296875,1.1115436553955078,-0.04366803169250488,-0.20394673943519592
1715439468195303200,2.70630322265625,1.3971052169799805,0.07016682624816895,-0.1512661725282669
1715439468205309200,2.71630908203125,1.7214174270629883,0.204972505569458,-0.04264417290687561
1715439468215315500,2.7263154296875,2.092987060546875,0.32789134979248047,-0.08839426934719086
1715439468225321700,2.73632177734375,2.376734733581543,0.4562673568725586,-0.05219733715057373
1715439468235328000,2.746327880859375,2.5447845458984375,0.6267998218536377,0.008937627077102661
1715439468245334000,2.756333984375,2.979617118835449,0.36996960639953613,-0.3141078054904938
1715439468255340300,2.76634033203125,2.8599853515625,-0.017137527465820312,-0.15690945088863373
1715439468265346600,2.7763466796875,2.8744688034057617,0.027706623077392578,0.08241865038871765
1715439468275352600,2.7863525390625,3.356112480163574,0.1144111156463623,-0.12952955067157745
1715439468285358800,2.79635888671875,3.8306102752685547,0.43428468704223633,-0.36654701828956604
1715439468295365000,2.806365234375,4.384233474731445,0.8363378047943115,-0.707923173904419
1715439468305371100,2.81637109375,4.841174125671387,1.2552673816680908,-0.9875667095184326
1715439468315377400,2.82637744140625,4.988502502441406,1.6269357204437256,-1.04679536819458
1715439468325383700,2.8363837890625,4.795143127441406,1.8330810070037842,-1.2094626426696777
1715439468335390000,2.846389892578125,4.277305603027344,1.8382129669189453,-1.0796785354614258
1715439468345396000,2.85639599609375,3.717593193054199,1.6065986156463623,-0.5519477725028992
1715439468355402200,2.86640234375,3.2350845336914062,1.2769529819488525,-0.13048988580703735
1715439468365408500,2.876408447265625,2.905116081237793,0.9529352188110352,-0.22531330585479736
1715439468375414500,2.88641455078125,2.3729629516601562,0.6795618534088135,0.18518662452697754
1715439468385420800,2.8964208984375,2.4108381271362305,0.3013162612915039,0.8683871030807495
1715439468395427000,2.906427001953125,2.7969226837158203,0.11202096939086914,0.8529976606369019
1715439468405433300,2.916433349609375,2.68405818939209,0.45884180068969727,0.7650448083877563
1715439468415439400,2.926439453125,2.654581069946289,0.9909050464630127,0.20319879055023193
1715439468425445600,2.936445556640625,2.948824882507324,0.5560727119445801,0.869917631149292
1715439468435452000,2.946451904296875,2.879192352294922,0.6412441730499268,1.1689928770065308
1715439468445458000,2.9564580078125,2.4937095642089844,0.7681586742401123,0.9240963459014893
1715439468455464200,2.966464111328125,1.9264965057373047,0.449343204498291,1.2182873487472534
1715439468465470500,2.976470458984375,1.2388858795166016,0.24114346504211426,0.9280263185501099
1715439468475476700,2.986476806640625,0.5487651824951172,-0.05343818664550781,0.5172228813171387
1715439468485482800,2.996482666015625,0.06194782257080078,0.22306132316589355,0.4940420389175415
1715439468495489000,3.006489013671875,0.09219646453857422,0.0962064266204834,0.01693129539489746
1715439468505495300,3.016495361328125,0.7358989715576172,0.028875112533569336,-0.5709272623062134
1715439468515501300,3.026501220703125,1.229379653930664,-0.1781294345855713,-0.24764025211334229
1715439468525507600,3.036507568359375,1.5571317672729492,-0.36283063888549805,0.4311772584915161
1715439468535513900,3.046513916015625,1.6180706024169922,-0.36570048332214355,0.8713909387588501
1715439468545520000,3.05652001953125,1.3946447372436523,-0.1482846736907959,0.7412711381912231
1715439468555526100,3.066526123046875,1.0388450622558594,-0.3528313636779785,0.5496267080307007
1715439468565532400,3.076532470703125,0.6984996795654297,-0.5425209999084473,0.8102089166641235
1715439468575538700,3.08653857421875,0.08680343627929688,-0.7315719127655029,1.108487606048584
1715439468585544700,3.096544677734375,-0.671351432800293,-1.016958236694336,1.0014618635177612
1715439468595551000,3.106551025390625,-1.762319564819336,-1.305947184562683,0.618502140045166
1715439468605557200,3.11655712890625,-2.952709197998047,-1.3781192302703857,0.3513129949569702
1715439468615563500,3.1265634765625,-3.8715572357177734,-1.434699535369873,0.16751086711883545
1715439468625569500,3.136569580078125,-4.416361331939697,-1.4118343591690063,0.007301449775695801
1715439468635575800,3.146575927734375,-4.847372055053711,-1.186537265777588,-0.26008445024490356
1715439468645582000,3.15658203125,-4.998765468597412,-1.0488519668579102,-0.45958027243614197
1715439468655588000,3.166588134765625,-5.354069709777832,-0.7891597747802734,-0.07690155506134033
1715439468665594400,3.176594482421875,-5.235854625701904,-0.8979127407073975,-0.48844003677368164
1715439468675600600,3.1866005859375,-4.535125732421875,-0.8495039939880371,-0.2487596869468689
1715439468685607000,3.19660693359375,-4.159689426422119,-0.597954511642456,0.1662030816078186
1715439468695613000,3.206613037109375,-3.955392360687256,-0.2799968719482422,-0.0012221336364746094
1715439468705619200,3.216619140625,-3.7336792945861816,-0.32341670989990234,-0.5852199792861938
1715439468715625500,3.22662548828125,-4.162669658660889,-0.2633657455444336,-0.519670844078064
1715439468725631500,3.236631591796875,-4.439713478088379,-0.3254082202911377,-0.4807499051094055
1715439468735637800,3.2466376953125,-4.695797443389893,-0.4805896282196045,-0.34444284439086914
1715439468745644000,3.25664404296875,-4.679138660430908,-0.5679669380187988,-0.31417790055274963
1715439468755650000,3.266650146484375,-4.084627628326416,-0.6893885135650635,-0.16896748542785645
1715439468765656300,3.27665625,-3.313725471496582,-0.691227912902832,-0.025479011237621307
1715439468775662600,3.28666259765625,-2.746901035308838,-0.7084863185882568,-0.14767330884933472
1715439468785668900,3.2966689453125,-2.20540189743042,-0.5020239353179932,-0.35686060786247253
1715439468795675000,3.3066748046875,-2.12837553024292,-0.2348926067352295,-0.28721240162849426
1715439468805681200,3.31668115234375,-2.324869155883789,-0.2993738651275635,0.19379922747612
1715439468815687400,3.3266875,-2.0068888664245605,-0.44917917251586914,0.6365832686424255
1715439468825693400,3.336693359375,-1.4992341995239258,-0.6397404670715332,0.8876577615737915
1715439468835699700,3.34669970703125,-1.2169313430786133,-0.6299502849578857,0.7510212659835815
1715439468845706000,3.3567060546875,-1.2361888885498047,-0.6577117443084717,0.26624172925949097
1715439468855712300,3.366712158203125,-1.3370027542114258,-0.8877441883087158,-0.32970336079597473
1715439468865718300,3.37671826171875,-1.170475959777832,-0.75527024269104,-0.8323675394058228
1715439468875724500,3.386724609375,-0.9606752395629883,-0.8752076625823975,-0.5886125564575195
1715439468885730800,3.396730712890625,-0.7649955749511719,-1.0801665782928467,-0.5177946090698242
1715439468895736800,3.40673681640625,-0.40593624114990234,-0.9245047569274902,-0.5819913744926453
1715439468905743000,3.4167431640625,-0.14126300811767578,-0.6984376907348633,-0.6793217658996582
1715439468915749400,3.426749267578125,0.0008687973022460938,-0.5427556037902832,-0.6826653480529785
1715439468925755600,3.436755615234375,-0.036879539489746094,-0.3137977123260498,-0.5151189565658569
1715439468935761700,3.44676171875,-0.049132347106933594,0.009140491485595703,-0.32163166999816895
1715439468945768000,3.456767822265625,0.11670780181884766,0.2298126220703125,-0.4594576358795166
1715439468955774200,3.466774169921875,0.3457460403442383,0.20881032943725586,-0.5590882301330566
1715439468965780200,3.4767802734375,0.5762834548950195,0.09761476516723633,-0.602340579032898
1715439468975786500,3.486786376953125,0.5072746276855469,0.026348114013671875,-0.46610260009765625
1715439468985792800,3.496792724609375,0.2774696350097656,0.10257339477539062,-0.35927268862724304
1715439468995799000,3.506799072265625,0.07293319702148438,0.2568802833557129,-0.2794104516506195
1715439469005805000,3.51680517578125,-0.12601184844970703,0.41950082778930664,-0.27092236280441284
1715439469015811300,3.526811279296875,-0.4633769989013672,0.47863268852233887,-0.2822619378566742
1715439469025817600,3.536817626953125,-0.6100454330444336,0.45183873176574707,-0.2634071111679077
1715439469035823600,3.54682373046875,-0.4996500015258789,0.358583927154541,-0.3219102621078491
1715439469045830000,3.556829833984375,-0.39035797119140625,0.3458280563354492,-0.3389974534511566
1715439469055836200,3.566836181640625,-0.3203239440917969,0.4031999111175537,-0.24978935718536377
1715439469065842400,3.576842529296875,-0.14598846435546875,0.40033578872680664,-0.19922009110450745
1715439469075848400,3.586848388671875,0.004032135009765625,0.34961581230163574,-0.23946909606456757
1715439469085854700,3.596854736328125,0.06307315826416016,0.3030738830566406,-0.2926582098007202
1715439469095861000,3.606861083984375,0.19405460357666016,0.3215341567993164,-0.27703118324279785
1715439469105867000,3.616866943359375,0.19633007049560547,0.347043514251709,-0.17324087023735046
1715439469115873300,3.626873291015625,0.13683605194091797,0.34238386154174805,-0.13941505551338196
1715439469125879600,3.636879638671875,0.0011739730834960938,0.32786035537719727,-0.11945468187332153
1715439469135885600,3.646885498046875,-0.09605598449707031,0.361926794052124,-0.05324414372444153
1715439469145891800,3.656891845703125,-0.24108409881591797,0.3404097557067871,-0.005102992057800293
1715439469155898000,3.666898193359375,-0.2716064453125,0.25525331497192383,-0.06904545426368713
1715439469165904400,3.676904296875,-0.1639575958251953,0.1695692539215088,-0.22152048349380493
1715439469175910400,3.686910400390625,0.005166053771972656,0.08902168273925781,-0.3035758435726166
1715439469185916700,3.696916748046875,0.20232200622558594,0.037427663803100586,-0.20418202877044678
1715439469195923000,3.7069228515625,0.5234584808349609,-0.011053085327148438,-0.029864490032196045
1715439469205929000,3.716928955078125,0.8355207443237305,0.04795384407043457,0.13249599933624268
1715439469215935200,3.726935302734375,0.9520740509033203,0.10591006278991699,0.1998751163482666
1715439469225941500,3.73694140625,1.0589723587036133,0.10512638092041016,0.157454252243042
1715439469235947800,3.74694775390625,1.1369962692260742,0.07918572425842285,0.06165701150894165
1715439469245953800,3.756953857421875,1.0769767761230469,0.07565975189208984,-0.013203144073486328
1715439469255960000,3.7669599609375,0.9036836624145508,0.07993054389953613,-0.1488855481147766
1715439469265966300,3.77696630859375,0.603022575378418,0.0731515884399414,-0.20673394203186035
1715439469275972400,3.786972412109375,0.17018795013427734,0.04294085502624512,-0.21201515197753906
1715439469285978600,3.796978515625,-0.15603160858154297,0.024960994720458984,-0.24354642629623413
1715439469295985000,3.80698486328125,-0.39545631408691406,0.07866454124450684,-0.20246046781539917
1715439469305991200,3.8169912109375,-0.4719266891479492,0.12854337692260742,-0.1541164517402649
1715439469315997200,3.8269970703125,-0.46205902099609375,0.13146352767944336,-0.11509197950363159
1715439469326003500,3.83700341796875,-0.46152210235595703,0.14972925186157227,-0.12484818696975708
1715439469336009700,3.847009765625,-0.4801645278930664,0.15976214408874512,-0.09955024719238281
1715439469346015700,3.857015625,-0.5612468719482422,0.14764189720153809,0.015723466873168945
1715439469356022000,3.86702197265625,-0.652435302734375,0.1862187385559082,0.03962677717208862
1715439469366028300,3.8770283203125,-0.6583766937255859,0.2898590564727783,-0.06908822059631348
1715439469376034600,3.88703466796875,-0.6652498245239258,0.33841419219970703,-0.09830683469772339
1715439469386040600,3.89704052734375,-0.7294025421142578,0.2985808849334717,-0.12687790393829346
1715439469396046800,3.907046875,-0.7132205963134766,0.2661001682281494,-0.1900743842124939
1715439469406053000,3.91705322265625,-0.6366128921508789,0.2544994354248047,-0.15224331617355347
1715439469416059100,3.92705908203125,-0.5472249984741211,0.21518445014953613,-0.10589152574539185
1715439469426065400,3.9370654296875,-0.5440893173217773,0.16335487365722656,-0.18101370334625244
1715439469436071700,3.94707177734375,-0.47071361541748047,0.14755845069885254,-0.22051632404327393
1715439469446078000,3.957077880859375,-0.38008689880371094,0.2275078296661377,-0.12292087078094482
1715439469456084000,3.967083984375,-0.45153236389160156,0.1749436855316162,-0.03302931785583496
1715439469466090200,3.97709033203125,-0.4330272674560547,0.04569220542907715,-0.09048682451248169
1715439469476096500,3.987096435546875,-0.21750736236572266,0.03460979461669922,-0.10923010110855103
1715439469486102500,3.9971025390625,0.02254009246826172,0.03934216499328613,-0.09311753511428833
1715439469496108800,4.00710888671875,0.20694637298583984,-0.008595705032348633,-0.07622212171554565
1715439469506115000,4.017114990234375,0.2567739486694336,-0.020572423934936523,-0.012816250324249268
1715439469516121000,4.02712109375,0.21656227111816406,-0.03926801681518555,0.07739657163619995
1715439469526127400,4.03712744140625,0.24327659606933594,-0.002522706985473633,0.0113525390625
1715439469536133600,4.047133544921875,0.2795524597167969,0.027585744857788086,-0.11742967367172241
1715439469546140000,4.057139892578125,0.24517059326171875,0.04648447036743164,-0.11484020948410034
1715439469556146000,4.06714599609375,0.23528671264648438,0.05900168418884277,-0.05123627185821533
1715439469566152200,4.077152099609375,0.277679443359375,0.03194379806518555,-0.02462393045425415
1715439469576158500,4.087158447265625,0.2443084716796875,0.04118943214416504,-0.08535689115524292
1715439469586164500,4.09716455078125,0.10789299011230469,0.044710397720336914,-0.09023922681808472
1715439469596170800,4.107170654296875,-0.007563591003417969,0.01504063606262207,-0.1160348653793335
1715439469606177000,4.117177001953125,0.0106201171875,0.009505271911621094,-0.1587977409362793
1715439469616183300,4.127183349609375,0.0757293701171875,-0.01059722900390625,-0.19588392972946167
1715439469626189300,4.137189208984375,0.12128734588623047,0.010682821273803711,-0.1945263147354126
1715439469636195600,4.147195556640625,0.08635520935058594,0.03976011276245117,-0.14073622226715088
1715439469646201900,4.157201904296875,-0.06094074249267578,0.06353306770324707,-0.07852590084075928
1715439469656208000,4.167207763671875,-0.21543502807617188,0.05999612808227539,-0.042425334453582764
1715439469666214100,4.177214111328125,-0.23121166229248047,0.0545046329498291,-0.020814120769500732
1715439469676220400,4.187220458984375,-0.11989688873291016,0.06570267677307129,-0.023647427558898926
1715439469686226700,4.197226806640625,0.02254962921142578,0.04473423957824707,-0.06833028793334961
1715439469696232700,4.207232666015625,0.16292285919189453,0.03284883499145508,-0.057398200035095215
1715439469706239000,4.217239013671875,0.2497692108154297,-0.000043392181396484375,-0.03668421506881714
1715439469716245200,4.227245361328125,0.3122425079345703,0.059142112731933594,-0.0902215838432312
1715439469726251300,4.237251220703125,0.23771286010742188,0.11457443237304688,-0.1970418393611908
1715439469736257500,4.247257568359375,0.05164909362792969,0.09712553024291992,-0.25305381417274475
1715439469746263800,4.257263916015625,-0.12212848663330078,0.14155983924865723,-0.27321362495422363
1715439469756270000,4.26727001953125,-0.25115394592285156,0.19142675399780273,-0.2676120400428772
1715439469766276000,4.277276123046875,-0.3081531524658203,0.19085049629211426,-0.26434874534606934
1715439469776282400,4.287282470703125,-0.2000112533569336,0.15898418426513672,-0.15971794724464417
1715439469786288600,4.29728857421875,-0.07986927032470703,0.14708948135375977,-0.06826776266098022
1715439469796294700,4.307294677734375,-0.02317333221435547,0.13597369194030762,-0.05216658115386963
1715439469806301000,4.317301025390625,0.04194831848144531,0.1395573616027832,-0.051053762435913086
1715439469816307200,4.32730712890625,0.08251571655273438,0.12432670593261719,-0.02764815092086792
1715439469826313500,4.3373134765625,0.11791419982910156,0.1466977596282959,-0.04419964551925659
1715439469836319500,4.347319580078125,0.14818382263183594,0.17790961265563965,-0.09521836042404175
1715439469846325800,4.35732568359375,0.15454864501953125,0.17085051536560059,-0.14267104864120483
1715439469856332000,4.36733203125,0.047824859619140625,0.11705493927001953,-0.18139663338661194
1715439469866338000,4.377338134765625,-0.043064117431640625,0.1304011344909668,-0.13498559594154358
1715439469876344300,4.38734423828125,-0.11836433410644531,0.14364957809448242,-0.14542099833488464
1715439469886350600,4.3973505859375,-0.20671367645263672,0.09138727188110352,-0.1225467324256897
1715439469896356600,4.407356689453125,-0.25632190704345703,0.04621624946594238,-0.1097363531589508
1715439469906363000,4.41736279296875,-0.13587474822998047,0.03126263618469238,-0.07455462217330933
1715439469916369200,4.427369140625,0.015666961669921875,0.002134084701538086,-0.02694907784461975
1715439469926375400,4.43737548828125,0.08025455474853516,-0.04634833335876465,-0.01873856782913208
1715439469936381400,4.44738134765625,0.07343196868896484,-0.019708871841430664,-0.006184786558151245
1715439469946387700,4.4573876953125,0.08567333221435547,0.020169973373413086,0.0016006529331207275
1715439469956394000,4.46739404296875,0.04128074645996094,0.05934500694274902,-0.06264162063598633
1715439469966400000,4.47739990234375,-0.11079692840576172,0.10334539413452148,-0.07105934619903564
1715439469976406300,4.48740625,-0.2182168960571289,0.10992193222045898,-0.07965150475502014
1715439469986412500,4.49741259765625,-0.28645896911621094,0.11256241798400879,-0.11550238728523254
1715439469996418800,4.507418701171875,-0.31163501739501953,0.07406353950500488,-0.049762874841690063
1715439470006424800,4.5174248046875,-0.21915721893310547,0.04247021675109863,-0.07803544402122498
1715439470016431000,4.52743115234375,-0.048377037048339844,0.031023263931274414,-0.15770071744918823
1715439470026437400,4.537437255859375,0.14318466186523438,-0.00396728515625,-0.13299456238746643
1715439470036443400,4.547443359375,0.25652599334716797,-0.03467082977294922,-0.038679271936416626
1715439470046449700,4.55744970703125,0.32124996185302734,-0.04245758056640625,-0.022263765335083008
1715439470056456000,4.5674560546875,0.3429536819458008,0.014365196228027344,0.00703701376914978
1715439470066462200,4.577462158203125,0.3226900100708008,0.07219672203063965,-0.002484053373336792
1715439470076468200,4.58746826171875,0.09613800048828125,-0.018827438354492188,0.01091533899307251
1715439470086474500,4.597474609375,-0.07958412170410156,0.06142067909240723,-0.05202016234397888
1715439470096480800,4.607480712890625,-0.04065132141113281,0.14124441146850586,-0.1581820845603943
1715439470106486800,4.61748681640625,0.025856971740722656,0.16826820373535156,-0.08500239253044128
1715439470116493000,4.6274931640625,0.05359935760498047,0.13834738731384277,-0.03212946653366089
1715439470126499300,4.637499267578125,0.09033584594726562,0.09953522682189941,-0.08468440175056458
1715439470136505600,4.647505615234375,0.1500387191772461,0.08974909782409668,-0.11427637934684753
1715439470146511600,4.65751171875,0.1759634017944336,0.07966160774230957,-0.1631956696510315
1715439470156518000,4.667517822265625,0.15453529357910156,0.050035953521728516,-0.18149134516716003
1715439470166524200,4.677524169921875,0.09580326080322266,0.048682212829589844,-0.1592593789100647
1715439470176530200,4.6875302734375,0.06620025634765625,0.07079434394836426,-0.1488344371318817
1715439470186536400,4.697536376953125,0.0699777603149414,0.10184526443481445,-0.1505633294582367
1715439470196542700,4.707542724609375,0.0785207748413086,0.13165688514709473,-0.0988401472568512
1715439470206549000,4.717549072265625,0.05873584747314453,0.14629507064819336,-0.017936646938323975
1715439470216555000,4.727554931640625,0.053630828857421875,0.13620758056640625,-0.036521077156066895
1715439470226561300,4.737561279296875,-0.03607749938964844,0.14500021934509277,-0.08841797709465027
1715439470236567600,4.747567626953125,-0.08667278289794922,0.16818022727966309,-0.05594554543495178
1715439470246573600,4.757573486328125,-0.16497421264648438,0.1829390525817871,-0.04926976561546326
1715439470256579800,4.767579833984375,-0.2095193862915039,0.18091797828674316,-0.16306450963020325
1715439470266586000,4.777586181640625,-0.14072132110595703,0.14308953285217285,-0.13581371307373047
1715439470276592000,4.787592041015625,-0.10149192810058594,0.12071824073791504,-0.07177311182022095
1715439470286598400,4.797598388671875,-0.10534286499023438,0.11284065246582031,-0.07359752058982849
1715439470296604700,4.807604736328125,-0.000743865966796875,0.07173585891723633,-0.10314497351646423
1715439470306611000,4.81761083984375,0.09303474426269531,0.05377316474914551,-0.12373316287994385
1715439470316617000,4.827616943359375,0.13397693634033203,0.04834437370300293,-0.07344937324523926
1715439470326623200,4.837623291015625,0.08517169952392578,0.06965517997741699,-0.09378239512443542
1715439470336629500,4.84762939453125,-0.0663900375366211,0.06217837333679199,-0.141340434551239
1715439470346635500,4.857635498046875,-0.16855335235595703,0.0273897647857666,-0.11768516898155212
1715439470356641800,4.867641845703125,-0.17045116424560547,0.05558300018310547,-0.08046966791152954
1715439470366648000,4.87764794921875,-0.09241580963134766,0.06975483894348145,-0.06297028064727783
1715439470376654300,4.887654296875,0.0032634735107421875,0.0880730152130127,-0.10269901156425476
1715439470386660400,4.897660400390625,-0.04390525817871094,0.10135865211486816,-0.11350467801094055
1715439470396666600,4.90766650390625,-0.1142110824584961,0.0498051643371582,-0.11417028307914734
1715439470406673000,4.9176728515625,-0.06118488311767578,0.023667097091674805,-0.14338386058807373
1715439470416679000,4.927678955078125,0.010038375854492188,0.053595542907714844,-0.12045177817344666
1715439470426685200,4.937685302734375,0.019249916076660156,0.06251358985900879,-0.09639182686805725
1715439470436691500,4.94769140625,0.00027179718017578125,0.07951545715332031,-0.07981690764427185
1715439470446697700,4.95769775390625,-0.06549835205078125,0.11016964912414551,-0.12309351563453674
1715439470456703700,4.967703857421875,-0.2058582305908203,0.08973860740661621,-0.15118983387947083
1715439470466710000,4.9777099609375,-0.25504589080810547,0.04380464553833008,-0.08057188987731934
1715439470476716300,4.98771630859375,-0.12482643127441406,0.04731106758117676,-0.05088752508163452
1715439470486722300,4.997722412109375,0.031558990478515625,0.06027078628540039,-0.033571988344192505
1715439470496728600,5.007728515625,0.12440872192382812,0.048659563064575195,0.02454960346221924
1715439470506734800,5.01773486328125,0.13120651245117188,0.03160858154296875,0.029997915029525757
1715439470516741000,5.0277412109375,0.12863445281982422,0.02365398406982422,-0.011577516794204712
1715439470526747100,5.0377470703125,0.13092899322509766,-0.01742100715637207,0.02215331792831421
1715439470536753400,5.04775341796875,0.1711406707763672,-0.02105116844177246,0.012129366397857666
1715439470546759700,5.057759765625,0.17807960510253906,-0.021120548248291016,-0.02178788185119629
1715439470556765700,5.067765625,0.12388801574707031,-0.021904706954956055,-0.0315895676612854
1715439470566772000,5.07777197265625,0.14128875732421875,-0.02301311492919922,-0.0028453469276428223
1715439470576778200,5.0877783203125,0.18681812286376953,-0.001306772232055664,-0.01148068904876709
1715439470586784500,5.097784423828125,0.14229297637939453,0.05695390701293945,-0.047427743673324585
1715439470596790500,5.10779052734375,-0.0100250244140625,0.06783938407897949,-0.08169722557067871
1715439470606796800,5.117796875,-0.11337566375732422,0.06169748306274414,-0.028320789337158203
1715439470616803000,5.127802978515625,-0.03661155700683594,0.08539962768554688,-0.043845176696777344
1715439470626809000,5.13780908203125,0.09521484375,0.12303352355957031,-0.052210479974746704
1715439470636815400,5.1478154296875,0.17787837982177734,0.14982366561889648,-0.05360659956932068
1715439470646821600,5.157821533203125,0.1887063980102539,0.1516263484954834,-0.01969623565673828
1715439470656827600,5.16782763671875,0.12894344329833984,0.1145467758178711,-0.05914607644081116
1715439470666834000,5.177833984375,0.023194313049316406,0.09153032302856445,-0.024993598461151123
1715439470676840200,5.187840087890625,-0.0007143020629882812,0.08764982223510742,-0.024051815271377563
1715439470686846500,5.197846435546875,-0.03829765319824219,0.04628133773803711,-0.11877530813217163
1715439470696852500,5.2078525390625,-0.08456230163574219,0.04339408874511719,-0.21034109592437744
1715439470706858800,5.217858642578125,-0.20056915283203125,0.0406954288482666,-0.252252459526062
1715439470716865000,5.227864990234375,-0.3148670196533203,0.015541791915893555,-0.22436445951461792
1715439470726871000,5.23787109375,-0.30535888671875,-0.016562461853027344,-0.22620555758476257
1715439470736877300,5.247877197265625,-0.1834583282470703,-0.008515357971191406,-0.20189818739891052
1715439470746883600,5.257883544921875,-0.007174491882324219,-0.004573345184326172,-0.15766845643520355
1715439470756889900,5.267889892578125,0.05804729461669922,0.00834345817565918,-0.07375311851501465
1715439470766895900,5.277895751953125,0.09409046173095703,-0.007706403732299805,-0.0012224912643432617
1715439470776902100,5.287902099609375,0.15336132049560547,0.0414278507232666,0.013380110263824463
1715439470786908400,5.297908447265625,0.20743656158447266,0.06908535957336426,0.037202417850494385
1715439470796914400,5.30791455078125,0.19530010223388672,0.07520818710327148,0.05607330799102783
1715439470806920700,5.317920654296875,0.1179819107055664,0.09332060813903809,0.07532763481140137
1715439470816927000,5.327927001953125,-0.02382659912109375,0.09637331962585449,0.024575889110565186
1715439470826933200,5.337933349609375,-0.1540546417236328,0.1141808032989502,-0.024893462657928467
1715439470836939300,5.347939208984375,-0.25432682037353516,0.12397384643554688,-0.10652539134025574
1715439470846945500,5.357945556640625,-0.24041271209716797,0.10717296600341797,-0.17296305298805237
1715439470856951800,5.367951904296875,-0.18474864959716797,0.09208440780639648,-0.15832369029521942
1715439470866957800,5.377957763671875,-0.08782005310058594,0.12024831771850586,-0.1389150321483612
1715439470876964000,5.387964111328125,-0.011440277099609375,0.09176087379455566,-0.08192881941795349
1715439470886970400,5.397970458984375,0.0023336410522460938,0.05013155937194824,-0.026373207569122314
1715439470896976600,5.4079765625,0.04887962341308594,0.09875988960266113,-0.03945469856262207
1715439470906982700,5.417982666015625,0.047679901123046875,0.1180257797241211,-0.006001025438308716
1715439470916989000,5.427989013671875,0.004215240478515625,0.10349082946777344,0.051797717809677124
1715439470926995200,5.4379951171875,0.0037546157836914062,0.06580758094787598,0.05826482176780701
1715439470937001200,5.448001220703125,0.04088020324707031,0.05253791809082031,0.027540892362594604
1715439470947007500,5.458007568359375,0.011225700378417969,0.049639225006103516,-0.07236087322235107
1715439470957013800,5.468013671875,0.04764747619628906,0.05254101753234863,-0.06104573607444763
1715439470967020000,5.47802001953125,0.12110424041748047,0.026988506317138672,-0.06697461009025574
1715439470977026000,5.488026123046875,0.15599536895751953,0.038095951080322266,-0.08984273672103882
1715439470987032300,5.4980322265625,0.13429927825927734,0.05171084403991699,-0.09661543369293213
1715439470997038600,5.50803857421875,0.042873382568359375,0.05378079414367676,-0.10348966717720032
1715439471007044900,5.518044921875,-0.10798454284667969,0.008066654205322266,-0.14973145723342896
1715439471017051100,5.528051025390625,-0.24231338500976562,-0.026708602905273438,-0.17900127172470093
1715439471027057400,5.538057373046875,-0.26173973083496094,-0.031176090240478516,-0.18604230880737305
1715439471037063700,5.548063720703125,-0.15401363372802734,-0.03449702262878418,-0.1644964963197708
1715439471047069700,5.558069580078125,-0.06702709197998047,-0.028078556060791016,-0.17059147357940674
1715439471057076000,5.568075927734375,0.013776779174804688,-0.012394189834594727,-0.1472805291414261
1715439471067082200,5.578082275390625,0.09812164306640625,-0.00715184211730957,-0.09518663585186005
1715439471077088500,5.588088623046875,0.12485504150390625,0.020359516143798828,-0.01479572057723999
1715439471087094800,5.5980947265625,0.09967803955078125,0.03678750991821289,0.012642979621887207
1715439471097101000,5.60810107421875,0.05639934539794922,0.056535959243774414,0.03014475107192993
1715439471107107300,5.618107421875,-0.03782176971435547,0.0518794059753418,0.029093384742736816
1715439471117113600,5.628113525390625,-0.15422916412353516,0.05276846885681152,-0.02824118733406067
1715439471127120000,5.638119873046875,-0.2220296859741211,0.0506136417388916,-0.05775345861911774
1715439471137126100,5.648126220703125,-0.20440292358398438,0.04566359519958496,-0.05579419434070587
1715439471147132400,5.65813232421875,-0.14499378204345703,0.051396846771240234,-0.05948816239833832
1715439471157138400,5.668138427734375,-0.03956317901611328,0.06664705276489258,-0.053078845143318176
1715439471167144700,5.678144775390625,0.05480766296386719,0.09525537490844727,-0.04113355278968811
1715439471177151000,5.68815087890625,0.0959930419921875,0.10855865478515625,-0.05247683823108673
1715439471187157200,5.6981572265625,0.10835075378417969,0.11663317680358887,-0.026857316493988037
1715439471197163500,5.70816357421875,0.10176753997802734,0.14330482482910156,-0.0510115772485733
1715439471207169800,5.718169677734375,0.06242847442626953,0.16473674774169922,-0.1052161455154419
1715439471217176000,5.728176025390625,0.0096282958984375,0.1340324878692627,-0.08361782133579254
1715439471227182300,5.738182373046875,-0.018708229064941406,0.13189291954040527,-0.07129931449890137
1715439471237188600,5.748188720703125,-0.04656028747558594,0.12969279289245605,-0.06813360750675201
1715439471247195000,5.75819482421875,-0.09753036499023438,0.1230168342590332,-0.08432498574256897
1715439471257201200,5.768201171875,-0.13835906982421875,0.10282731056213379,-0.11008933186531067
1715439471267207400,5.77820751953125,-0.15512847900390625,0.09770679473876953,-0.12618954479694366
1715439471277213400,5.78821337890625,-0.1152353286743164,0.07423877716064453,-0.09466417133808136
1715439471287219700,5.7982197265625,-0.08553218841552734,0.08451008796691895,-0.05897083878517151
1715439471297226000,5.80822607421875,-0.061272621154785156,0.11433625221252441,-0.06651972234249115
1715439471307232300,5.818232177734375,-0.009351730346679688,0.1396496295928955,-0.012901782989501953
1715439471317238300,5.82823828125,0.0039539337158203125,0.10362529754638672,-0.01665288209915161
1715439471327244500,5.83824462890625,0.031256675720214844,0.09145689010620117,0.002919137477874756
1715439471337250800,5.848250732421875,0.048979759216308594,0.08792257308959961,0.059380024671554565
1715439471347257000,5.858257080078125,0.019759178161621094,0.0735321044921875,0.06266304850578308
1715439471357263000,5.86826318359375,-0.04162788391113281,0.08191609382629395,0.05588868260383606
1715439471367269400,5.878269287109375,-0.12541675567626953,0.07582926750183105,0.03827443718910217
1715439471377275600,5.888275634765625,-0.19862937927246094,0.051985979080200195,0.04374232888221741
1715439471387281700,5.89828173828125,-0.17214012145996094,0.039528846740722656,0.005889326333999634
1715439471397288000,5.908287841796875,-0.1322307586669922,0.056706905364990234,-0.051544755697250366
1715439471407294200,5.918294189453125,-0.055416107177734375,0.07879471778869629,-0.09924298524856567
1715439471417300500,5.928300537109375,-0.008073806762695312,0.09089374542236328,-0.16475413739681244
1715439471427306500,5.938306396484375,-0.022756576538085938,0.10280370712280273,-0.23317085206508636
1715439471437312800,5.948312744140625,-0.04669666290283203,0.10051870346069336,-0.19085291028022766
1715439471447319000,5.958319091796875,-0.05148029327392578,0.09358501434326172,-0.16161596775054932
1715439471457325000,5.968324951171875,-0.04210376739501953,0.06795477867126465,-0.1272023320198059
1715439471467331300,5.978331298828125,-0.03770256042480469,0.05257558822631836,-0.07448333501815796
1715439471477337600,5.988337646484375,0.008919715881347656,0.06610751152038574,-0.056127309799194336
1715439471487343900,5.99834375,0.035973548889160156,0.07460260391235352,-0.04766586422920227
1715439471497350000,6.008349853515625,0.02015399932861328,0.03134870529174805,-0.044071704149246216
1715439471507356200,6.018356201171875,0.02801036834716797,0.0034401416778564453,-0.10174956917762756
1715439471517362400,6.028362548828125,0.05926704406738281,0.023098468780517578,-0.11577337980270386
1715439471527368400,6.038368408203125,0.1183481216430664,0.04665184020996094,-0.12391528487205505
1715439471537374700,6.048374755859375,0.1436910629272461,0.0593266487121582,-0.13006848096847534
1715439471547381000,6.058381103515625,0.16884422302246094,0.042374610900878906,-0.12016618251800537
1715439471557387300,6.06838720703125,0.1985950469970703,0.029048919677734375,-0.0761381983757019
1715439471567393300,6.078393310546875,0.17167282104492188,0.02878570556640625,-0.018174558877944946
1715439471577399600,6.088399658203125,0.15484333038330078,0.013589620590209961,-0.008380532264709473
1715439471587405800,6.09840576171875,0.12430763244628906,0.026584625244140625,0.00013571977615356445
1715439471597411800,6.108411865234375,0.06618309020996094,0.029637813568115234,-0.030600130558013916
1715439471607418000,6.118418212890625,-0.009698867797851562,0.041853904724121094,-0.04305937886238098
1715439471617424400,6.12842431640625,-0.02306079864501953,0.05847620964050293,-0.05090180039405823
1715439471627430700,6.1384306640625,-0.05511665344238281,0.0703129768371582,-0.07685026526451111
1715439471637436700,6.148436767578125,0.021592140197753906,0.08206772804260254,-0.0733996331691742
1715439471647443000,6.15844287109375,0.08777618408203125,0.08342194557189941,-0.050231099128723145
1715439471657449200,6.16844921875,0.06850147247314453,0.07835054397583008,-0.07314077019691467
1715439471667455200,6.178455322265625,0.021599769592285156,0.10964632034301758,-0.1175740659236908
1715439471677461500,6.18846142578125,-0.0667715072631836,0.10219168663024902,-0.17942744493484497
1715439471687467800,6.1984677734375,-0.10669994354248047,0.07196331024169922,-0.19434073567390442
1715439471697474000,6.20847412109375,-0.11791610717773438,0.03398394584655762,-0.17371991276741028
1715439471707480000,6.21847998046875,-0.07741928100585938,-0.002009868621826172,-0.08974942564964294
1715439471717486300,6.228486328125,0.009389877319335938,-0.017935514450073242,-0.041727662086486816
1715439471727492600,6.23849267578125,0.12302207946777344,0.004206418991088867,-0.023821264505386353
1715439471737498600,6.24849853515625,0.21614837646484375,0.011167287826538086,0.007384508848190308
1715439471747505000,6.2585048828125,0.21385765075683594,0.03566265106201172,-0.008450359106063843
1715439471757511200,6.26851123046875,0.10815811157226562,0.040102481842041016,0.034281134605407715
1715439471767517200,6.27851708984375,0.03721427917480469,0.025203704833984375,0.05454128980636597
1715439471777523500,6.2885234375,0.00046634674072265625,0.04326128959655762,0.0748664140701294
1715439471787529700,6.29852978515625,-0.06859493255615234,0.07036685943603516,0.08993485569953918
1715439471797536000,6.308535888671875,-0.11779308319091797,0.06918740272521973,0.07193934917449951
1715439471807542000,6.3185419921875,-0.1428842544555664,0.07366633415222168,0.030666828155517578
1715439471817548300,6.32854833984375,-0.14906024932861328,0.08872032165527344,-0.014786124229431152
1715439471827554600,6.338554443359375,-0.17898178100585938,0.09526896476745605,-0.05990859866142273
1715439471837560600,6.348560546875,-0.15696048736572266,0.0794534683227539,-0.08100533485412598
1715439471847566800,6.35856689453125,-0.11660957336425781,0.06450867652893066,-0.09298533201217651
1715439471857573000,6.368572998046875,-0.105224609375,0.07376956939697266,-0.12026718258857727
1715439471867579400,6.378579345703125,-0.07043170928955078,0.09250879287719727,-0.13974767923355103
1715439471877585400,6.38858544921875,-0.021965980529785156,0.0541684627532959,-0.09855592250823975
1715439471887591700,6.398591796875,0.0021772384643554688,0.030307292938232422,-0.08055725693702698
1715439471897598000,6.408597900390625,0.02588939666748047,0.058347463607788086,-0.08905276656150818
1715439471907604000,6.41860400390625,0.021053314208984375,0.047562599182128906,-0.048561692237854004
1715439471917610200,6.4286103515625,-0.04487323760986328,0.04595541954040527,-0.07797041535377502
1715439471927616500,6.438616455078125,-0.11451244354248047,0.016333580017089844,-0.11556863784790039
1715439471937622800,6.448622802734375,-0.1218862533569336,-0.017293691635131836,-0.137577623128891
1715439471947628800,6.45862890625,-0.14356231689453125,-0.016683578491210938,-0.152837872505188
1715439471957635000,6.468635009765625,-0.06153392791748047,-0.06714606285095215,-0.21423500776290894
1715439471967641300,6.478641357421875,0.056870460510253906,-0.13573122024536133,-0.2846909165382385
1715439471977647400,6.4886474609375,0.20196151733398438,-0.16210651397705078,-0.26513010263442993
1715439471987653600,6.498653564453125,0.3076009750366211,-0.157393217086792,-0.19840902090072632
1715439471997660000,6.508659912109375,0.29903221130371094,-0.15038061141967773,-0.13553482294082642
1715439472007666200,6.518666259765625,0.29577159881591797,-0.08894014358520508,-0.07643070816993713
1715439472017672200,6.528672119140625,0.25547218322753906,-0.035318613052368164,-0.03661087155342102
1715439472027678500,6.538678466796875,0.12206172943115234,-0.011943578720092773,-0.0033642053604125977
1715439472037684700,6.548684814453125,-0.05619335174560547,-0.002694368362426758,-0.015317589044570923
1715439472047690800,6.558690673828125,-0.20818614959716797,0.05446195602416992,0.033746302127838135
1715439472057697000,6.568697021484375,-0.2593259811401367,0.10290026664733887,0.08379969000816345
1715439472067703300,6.578703369140625,-0.1639995574951172,0.1468508243560791,0.1107327938079834
1715439472077709600,6.58870947265625,-0.10330486297607422,0.204512357711792,0.13246598839759827
1715439472087715600,6.598715576171875,-0.08604907989501953,0.20502734184265137,0.13426974415779114
1715439472097721900,6.608721923828125,-0.08325672149658203,0.23420310020446777,0.08292543888092041
1715439472107728100,6.61872802734375,-0.1370716094970703,0.28688764572143555,0.012177497148513794
1715439472117734100,6.628734130859375,-0.2373638153076172,0.31151390075683594,-0.043744832277297974
1715439472127740400,6.638740478515625,-0.298797607421875,0.3185853958129883,-0.09906327724456787
1715439472137746700,6.64874658203125,-0.2844085693359375,0.28977084159851074,-0.11630609631538391
1715439472147752700,6.658752685546875,-0.27077674865722656,0.24911069869995117,-0.12426015734672546
1715439472157759000,6.668759033203125,-0.19199752807617188,0.20621705055236816,-0.12248632311820984
1715439472167765200,6.67876513671875,-0.07249259948730469,0.13689255714416504,-0.08289474248886108
1715439472177771500,6.688771484375,0.040297508239746094,0.0781548023223877,-0.06729713082313538
1715439472187777500,6.698777587890625,0.07134628295898438,0.04786181449890137,-0.07444298267364502
1715439472197783800,6.70878369140625,0.031411170959472656,0.00777125358581543,-0.02752739191055298
1715439472207790000,6.7187900390625,0.039414405822753906,-0.004300832748413086,-0.00790327787399292
1715439472217796000,6.728796142578125,0.000408172607421875,0.0019505023956298828,-0.026155948638916016
1715439472227802400,6.73880224609375,-0.1039743423461914,0.00386810302734375,-0.01655524969100952
1715439472237808600,6.74880859375,-0.16930389404296875,0.007033824920654297,0.0018375813961029053
1715439472247815000,6.75881494140625,-0.15382003784179688,0.006618499755859375,0.009942740201950073
1715439472257821000,6.768821044921875,-0.07750415802001953,-0.0072329044342041016,-0.02147701382637024
1715439472267827200,6.7788271484375,0.007045745849609375,0.007397890090942383,-0.0024563968181610107
1715439472277833500,6.78883349609375,0.062035560607910156,0.002740144729614258,0.029571354389190674
1715439472287839500,6.798839599609375,0.1257791519165039,-0.007262468338012695,-0.0009895861148834229
1715439472297845800,6.808845703125,0.17943286895751953,-0.00878596305847168,-0.03711804747581482
1715439472307852000,6.81885205078125,0.18550491333007812,-0.00667262077331543,-0.03660166263580322
1715439472317858300,6.8288583984375,0.13999176025390625,-0.014915943145751953,-0.027581602334976196
1715439472327864300,6.8388642578125,0.12376213073730469,-0.009796619415283203,-0.0659392774105072
1715439472337870600,6.84887060546875,0.11273765563964844,0.017987728118896484,-0.06108316779136658
1715439472347876900,6.858876953125,0.08323001861572266,0.05884552001953125,-0.05613964796066284
1715439472357883000,6.8688828125,0.04021739959716797,0.06557106971740723,-0.041494399309158325
1715439472367889200,6.87888916015625,0.012131690979003906,0.0576479434967041,0.011356472969055176
1715439472377895400,6.8888955078125,0.007943153381347656,0.10192394256591797,0.026398152112960815
1715439472387901700,6.898901611328125,0.017821311950683594,0.09413838386535645,0.03632932901382446
1715439472397907700,6.90890771484375,0.008588790893554688,0.10597491264343262,0.00684705376625061
1715439472407914000,6.9189140625,-0.000579833984375,0.056970834732055664,-0.004748433828353882
1715439472417920300,6.928920166015625,-0.000301361083984375,0.01406407356262207,-0.03575962781906128
1715439472427926300,6.93892626953125,-0.004787445068359375,0.0003101825714111328,-0.08502978086471558
1715439472437932500,6.9489326171875,-0.004528045654296875,0.01036381721496582,-0.11876460909843445
1715439472447938800,6.958938720703125,0.014516830444335938,0.024802684783935547,-0.13606321811676025
1715439472457945000,6.968945068359375,0.02849864959716797,0.03865218162536621,-0.14575427770614624
1715439472467951400,6.978951416015625,0.04701709747314453,0.05152630805969238,-0.1476672887802124
1715439472477957600,6.98895751953125,0.08895683288574219,0.0630338191986084,-0.10430380702018738
1715439472487964000,6.9989638671875,0.050345420837402344,0.08738923072814941,-0.09688353538513184
1715439472497970200,7.00897021484375,-0.029947280883789062,0.1109304428100586,-0.08343270421028137
1715439472507976200,7.01897607421875,-0.13257312774658203,0.1063075065612793,-0.0750262439250946
1715439472517982500,7.028982421875,-0.186737060546875,0.1031332015991211,-0.03980949521064758
1715439472527988700,7.03898876953125,-0.1649608612060547,0.11078619956970215,-0.011892616748809814
1715439472537995000,7.0489951171875,-0.1249532699584961,0.11014771461486816,-0.020067423582077026
1715439472548001300,7.059001220703125,-0.09511852264404297,0.06780600547790527,-0.039722561836242676
1715439472558007600,7.069007568359375,-0.08948612213134766,0.050504446029663086,-0.06995201110839844
1715439472568013800,7.079013916015625,-0.027545928955078125,0.038609981536865234,-0.0718112587928772
1715439472578020000,7.08902001953125,0.028781890869140625,0.031048059463500977,-0.06805896759033203
1715439472588026400,7.0990263671875,0.04201793670654297,0.008521318435668945,-0.0866735577583313
1715439472598032600,7.10903271484375,0.059943199157714844,0.004446983337402344,-0.08565622568130493
1715439472608039000,7.119038818359375,0.06837749481201172,0.01850748062133789,-0.07518741488456726
1715439472618045200,7.129045166015625,0.02027130126953125,0.05088067054748535,-0.06995758414268494
1715439472628051200,7.13905126953125,0.0012178421020507812,0.054656028747558594,-0.042430996894836426
1715439472638057500,7.149057373046875,-0.03643321990966797,0.0683603286743164,-0.007710009813308716
1715439472648063700,7.159063720703125,-0.05947589874267578,0.06376433372497559,0.03424367308616638
1715439472658070000,7.169070068359375,-0.030431747436523438,0.06451225280761719,0.05999436974525452
1715439472668076300,7.179076171875,0.021691322326660156,0.05128884315490723,0.055854618549346924
1715439472678082600,7.18908251953125,0.03058338165283203,0.010116815567016602,-0.0006163120269775391
1715439472688088800,7.1990888671875,-0.0077610015869140625,-0.011525392532348633,-0.041881829500198364
1715439472698095000,7.20909521484375,-0.012513160705566406,-0.023462295532226562,-0.07710567116737366
1715439472708101400,7.219101318359375,-0.007699012756347656,-0.02625131607055664,-0.11040377616882324
1715439472718107600,7.229107666015625,-0.045243263244628906,-0.015610694885253906,-0.1644778847694397
1715439472728114000,7.239114013671875,-0.039786338806152344,-0.010296106338500977,-0.17760100960731506
1715439472738120200,7.2491201171875,-0.062473297119140625,0.017548322677612305,-0.1797562539577484
1715439472748126200,7.259126220703125,-0.14598751068115234,0.04496049880981445,-0.13506463170051575
1715439472758132500,7.269132568359375,-0.1434774398803711,0.09117841720581055,-0.17594990134239197
1715439472768138800,7.279138671875,-0.2116689682006836,0.09417557716369629,-0.15870964527130127
1715439472778145000,7.28914501953125,-0.27442264556884766,0.09369850158691406,-0.08946895599365234
1715439472788151000,7.299151123046875,-0.24724960327148438,0.12355566024780273,-0.045518964529037476
1715439472798157300,7.3091572265625,-0.16456222534179688,0.10776734352111816,0.011140525341033936
1715439472808163600,7.31916357421875,-0.04115867614746094,0.1028902530670166,0.004159331321716309
1715439472818169900,7.329169921875,0.02834320068359375,0.10326075553894043,-0.01359701156616211
1715439472828176000,7.33917578125,0.059136390686035156,0.07514023780822754,-0.04125851392745972
1715439472838182100,7.34918212890625,0.0848531723022461,0.07983040809631348,-0.06772056221961975
1715439472848188400,7.3591884765625,0.13396358489990234,0.07392263412475586,-0.12582382559776306
1715439472858194400,7.3691943359375,0.1354808807373047,0.04338502883911133,-0.1398894488811493
1715439472868200700,7.37920068359375,0.14208316802978516,0.030817031860351562,-0.11130267381668091
1715439472878207000,7.38920703125,0.09706497192382812,0.03631448745727539,-0.09256887435913086
1715439472888213200,7.399213134765625,0.06710147857666016,0.036522626876831055,-0.10302221775054932
1715439472898219300,7.40921923828125,0.056527137756347656,0.041452884674072266,-0.09083592891693115
1715439472908225500,7.4192255859375,0.022620201110839844,0.027483224868774414,-0.0701170265674591
1715439472918231800,7.429231689453125,0.012845993041992188,0.04191136360168457,-0.06853678822517395
1715439472928237800,7.43923779296875,-0.015551567077636719,0.04650688171386719,-0.08102652430534363
1715439472938244000,7.449244140625,-0.1143178939819336,0.02828693389892578,-0.09366306662559509
1715439472948250400,7.45925048828125,-0.09405326843261719,0.05886697769165039,-0.10749107599258423
1715439472958256600,7.469256591796875,-0.04134941101074219,0.04736447334289551,-0.05601704120635986
1715439472968262700,7.4792626953125,0.024641990661621094,0.03123617172241211,-0.07136154174804688
1715439472978269000,7.48926904296875,0.09915637969970703,0.047448158264160156,-0.06662523746490479
1715439472988275200,7.499275146484375,0.11151790618896484,0.07161450386047363,-0.05173009634017944
1715439472998281200,7.50928125,0.05792808532714844,0.07125425338745117,-0.09835353493690491
1715439473008287500,7.51928759765625,-0.02769184112548828,0.02844834327697754,-0.10674616694450378
1715439473018293800,7.529293701171875,-0.12136363983154297,0.0006995201110839844,-0.04906570911407471
1715439473028300000,7.539300048828125,-0.10995960235595703,0.02072286605834961,-0.07220959663391113
1715439473038306000,7.54930615234375,-0.08940982818603516,0.05434155464172363,-0.06443721055984497
1715439473048312300,7.559312255859375,-0.0646352767944336,0.03548169136047363,-0.002111673355102539
1715439473058318600,7.569318603515625,-0.0074443817138671875,0.026508569717407227,-0.04773259162902832
1715439473068324600,7.57932470703125,-0.00780487060546875,0.05571889877319336,-0.07391136884689331
1715439473078331000,7.589330810546875,-0.03664207458496094,0.08049511909484863,-0.05713200569152832
1715439473088337200,7.599337158203125,-0.06527996063232422,0.08700156211853027,-0.08305084705352783
1715439473098343200,7.60934326171875,-0.07486343383789062,0.07086420059204102,-0.07615846395492554
1715439473108349400,7.619349365234375,-0.0043506622314453125,0.07452917098999023,-0.052059829235076904
1715439473118355700,7.629355712890625,0.09809207916259766,0.07804679870605469,-0.025592565536499023
1715439473128362000,7.639362060546875,0.15196609497070312,0.03400731086730957,0.03640544414520264
1715439473138368000,7.649367919921875,0.1439952850341797,0.03738856315612793,0.0008478760719299316
1715439473148374300,7.659374267578125,0.14566707611083984,0.026621341705322266,0.0020195841789245605
1715439473158380500,7.669380615234375,0.1661539077758789,-0.0357508659362793,0.045519113540649414
1715439473168386600,7.679386474609375,0.2430582046508789,-0.003688812255859375,-0.03919452428817749
1715439473178392800,7.689392822265625,0.2153453826904297,-0.03435468673706055,-0.03246849775314331
1715439473188399000,7.699399169921875,0.21657752990722656,-0.023108959197998047,-0.08152318000793457
1715439473198405400,7.7094052734375,0.10022258758544922,-0.0035119056701660156,-0.05279296636581421
1715439473208411400,7.719411376953125,0.03751564025878906,0.034687042236328125,-0.11308294534683228
1715439473218417700,7.729417724609375,-0.047768592834472656,0.0020253658294677734,-0.07872152328491211
1715439473228424000,7.739423828125,-0.051550865173339844,-0.0064547061920166016,-0.12113505601882935
1715439473238430000,7.749429931640625,-0.08823680877685547,-0.0052890777587890625,-0.11128741502761841
1715439473248436200,7.759436279296875,-0.07741069793701172,-0.027294158935546875,-0.10989898443222046
1715439473258442500,7.7694423828125,-0.05287456512451172,-0.02020406723022461,-0.1117658019065857
1715439473268448800,7.77944873046875,0.018262863159179688,-0.022583723068237305,-0.07509511709213257
1715439473278454800,7.789454833984375,-0.019989013671875,-0.053705692291259766,-0.08528441190719604
1715439473288461000,7.7994609375,-0.010491371154785156,0.009339332580566406,-0.027581870555877686
1715439473298467300,7.80946728515625,-0.08593559265136719,0.0002799034118652344,-0.06752288341522217
1715439473308473300,7.819473388671875,-0.1367635726928711,0.010383844375610352,-0.07186698913574219
1715439473318479600,7.829479736328125,-0.1256856918334961,0.025523662567138672,-0.0947752594947815
1715439473328486000,7.83948583984375,-0.15260696411132812,0.06918501853942871,-0.11260753870010376
1715439473338492200,7.8494921875,-0.16044044494628906,0.10783934593200684,-0.11957740783691406
1715439473348498200,7.859498291015625,-0.15417194366455078,0.11782026290893555,-0.09670597314834595
1715439473358504400,7.86950439453125,-0.14812755584716797,0.1090095043182373,-0.06376487016677856
1715439473368510700,7.8795107421875,-0.11394309997558594,0.06737637519836426,-0.04046505689620972
1715439473378516700,7.889516845703125,-0.04251670837402344,0.06380677223205566,-0.04189038276672363
1715439473388523000,7.89952294921875,-0.03326416015625,0.05515909194946289,-0.0025583505630493164
1715439473398529300,7.909529296875,-0.052288055419921875,0.03239297866821289,0.0064490437507629395
1715439473408535600,7.91953564453125,-0.08035755157470703,0.023996353149414062,-0.0037555694580078125
1715439473418541600,7.92954150390625,-0.084442138671875,0.0299224853515625,-0.013592898845672607
1715439473428547800,7.9395478515625,-0.13105392456054688,0.008279800415039062,-0.05156099796295166
1715439473438554000,7.94955419921875,-0.10645198822021484,-0.01691746711730957,-0.03288954496383667
1715439473448560000,7.95956005859375,0.011976242065429688,-0.02777886390686035,-0.014572679996490479
1715439473458566400,7.96956640625,0.020397186279296875,-0.011303901672363281,-0.014573931694030762
1715439473468572700,7.97957275390625,-0.01825428009033203,0.004197359085083008,-0.04671353101730347
1715439473478578700,7.98957861328125,-0.08463859558105469,0.029172420501708984,-0.08231654763221741
1715439473488585000,7.9995849609375,-0.07477092742919922,0.04985618591308594,-0.08976724743843079
