time,seconds_elapsed,z,y,x
1715439283985628200,0.114628173828125,-0.4443073272705078,0.23265838623046875,-0.18578751385211945
1715439283995638300,0.12463818359375,-0.17890405654907227,0.23089981079101562,-0.3001445531845093
1715439284005649200,0.134649169921875,0.040055274963378906,0.19957685470581055,-0.14395928382873535
1715439284015660300,0.144660400390625,0.04506826400756836,0.19699907302856445,-0.2490183711051941
1715439284025671700,0.154671630859375,0.10877561569213867,0.20327377319335938,-0.17780663073062897
1715439284035682300,0.164682373046875,0.1971282958984375,0.10134744644165039,-0.14511096477508545
1715439284045688000,0.17468798828125,0.32338428497314453,0.03946113586425781,0.14293020963668823
1715439284055693800,0.18469384765625,0.3158698081970215,0.018638134002685547,0.25023698806762695
1715439284065699600,0.194699462890625,0.14080142974853516,0.041866302490234375,0.045166850090026855
1715439284075705300,0.204705322265625,-0.009311199188232422,0.14411544799804688,0.021267294883728027
1715439284085711000,0.214711181640625,-0.1557607650756836,0.1776885986328125,-0.04502865672111511
1715439284095716900,0.224716796875,-0.28638172149658203,0.18764877319335938,-0.1878906935453415
1715439284105722600,0.23472265625,-0.4813423156738281,0.17658233642578125,-0.19514185190200806
1715439284115728100,0.24472802734375,-0.5155634880065918,0.16011571884155273,-0.09868444502353668
1715439284125734000,0.25473388671875,-0.442044734954834,0.14307641983032227,0.13070400059223175
1715439284135739600,0.26473974609375,-0.30578041076660156,0.08352947235107422,0.08276195824146271
1715439284145745400,0.274745361328125,-0.28184986114501953,0.11903190612792969,0.0891355574131012
1715439284155751200,0.284751220703125,-0.05693531036376953,0.08451175689697266,-0.09869805723428726
1715439284165757000,0.2947568359375,0.030559539794921875,0.19889211654663086,-0.28411146998405457
1715439284175762700,0.3047626953125,-0.04218006134033203,0.21275663375854492,-0.35694316029548645
1715439284185768400,0.3147685546875,0.10576629638671875,0.18384504318237305,-0.2504596710205078
1715439284195774000,0.32477392578125,0.07948064804077148,0.12638521194458008,-0.2027984857559204
1715439284205779700,0.33477978515625,-0.03248119354248047,0.0972142219543457,-0.2546008825302124
1715439284215785500,0.344785400390625,-0.17270708084106445,0.06366634368896484,-0.1907634139060974
1715439284225791200,0.354791259765625,-0.25814104080200195,0.059528350830078125,-0.1715838611125946
1715439284235797000,0.364796875,-0.2684950828552246,0.0712742805480957,-0.21992789208889008
1715439284245802800,0.374802734375,-0.17798328399658203,0.037909507751464844,-0.247517392039299
1715439284255808500,0.38480859375,-0.15654993057250977,0.05800437927246094,-0.2238996922969818
1715439284265814300,0.394814208984375,-0.10000848770141602,0.08377408981323242,-0.1734498292207718
1715439284275819800,0.40481982421875,0.05297088623046875,0.0481562614440918,-0.15040527284145355
1715439284285825500,0.414825439453125,0.09569025039672852,-0.0015950202941894531,-0.07866540551185608
1715439284295831300,0.424831298828125,0.054476261138916016,-0.03732919692993164,0.000365331768989563
1715439284305837000,0.434837158203125,0.010147571563720703,-0.04939985275268555,0.017987489700317383
1715439284315842800,0.4448427734375,-0.0047702789306640625,-0.056844234466552734,0.05972445011138916
1715439284325848600,0.4548486328125,-0.009773731231689453,-0.040986061096191406,0.09650834649801254
1715439284335854600,0.4648544921875,-0.03272819519042969,-0.035625457763671875,0.01461164653301239
1715439284345860400,0.4748603515625,-0.1015157699584961,0.025166988372802734,-0.10099989175796509
1715439284355866000,0.4848662109375,-0.09844779968261719,0.07035493850708008,-0.15665751695632935
1715439284365871900,0.494871826171875,0.03210306167602539,0.03839588165283203,-0.12966707348823547
1715439284375877600,0.504877685546875,0.08237266540527344,-0.014017581939697266,-0.14696158468723297
1715439284385883400,0.51488330078125,0.030605316162109375,-0.0583653450012207,-0.14152318239212036
1715439284395889200,0.52488916015625,-0.0418243408203125,-0.08499574661254883,-0.16016606986522675
1715439284405894700,0.534894775390625,-0.14000320434570312,-0.09342432022094727,-0.16818059980869293
1715439284415900400,0.544900390625,-0.26931142807006836,-0.11095094680786133,-0.18848121166229248
1715439284425906200,0.55490625,-0.3736543655395508,-0.09898710250854492,-0.22084569931030273
1715439284435912000,0.564911865234375,-0.41667747497558594,-0.0855093002319336,-0.22328965365886688
1715439284445917700,0.574917724609375,-0.44198036193847656,-0.056284427642822266,-0.2198827862739563
1715439284455923500,0.58492333984375,-0.43131017684936523,-0.05368185043334961,-0.18864068388938904
1715439284465929200,0.59492919921875,-0.3612232208251953,-0.07784509658813477,-0.12641745805740356
1715439284475935000,0.60493505859375,-0.2890195846557617,-0.08612585067749023,-0.075543612241745
1715439284485941000,0.61494091796875,-0.20990610122680664,-0.06946086883544922,-0.07808487862348557
1715439284495946800,0.62494677734375,-0.13765430450439453,-0.0381321907043457,-0.10056169331073761
1715439284505952500,0.634952392578125,-0.11846351623535156,-0.035500526428222656,-0.0711606964468956
1715439284515958300,0.644958251953125,-0.09480094909667969,-0.05181884765625,-0.013552643358707428
1715439284525964000,0.654964111328125,-0.10413026809692383,-0.06824016571044922,0.024916324764490128
1715439284535969800,0.6649697265625,-0.16037940979003906,-0.05613136291503906,-0.007317386567592621
1715439284545975600,0.6749755859375,-0.13127660751342773,-0.02500629425048828,-0.09486105293035507
1715439284555981300,0.684981201171875,-0.02675151824951172,0.0002841949462890625,-0.09962970018386841
1715439284565987000,0.694987060546875,0.006461620330810547,-0.004238128662109375,-0.12613052129745483
1715439284575992800,0.704992919921875,-0.025813579559326172,0.01379251480102539,-0.13706867396831512
1715439284585998600,0.71499853515625,-0.07610368728637695,-0.006451129913330078,-0.13367398083209991
1715439284596004400,0.72500439453125,-0.09751510620117188,-0.026130199432373047,-0.12650874257087708
1715439284606010400,0.73501025390625,-0.07190465927124023,0.0020608901977539062,-0.08321336656808853
1715439284616016100,0.74501611328125,-0.06583595275878906,0.015961170196533203,-0.06181701645255089
1715439284626022000,0.75502197265625,-0.07405757904052734,0.0014553070068359375,-0.00887382123619318
1715439284636027600,0.765027587890625,-0.01621389389038086,-0.008098125457763672,0.08305439352989197
1715439284646033400,0.775033447265625,-0.010914802551269531,-0.003593921661376953,0.10984985530376434
1715439284656039200,0.7850390625,-0.010200977325439453,0.0006074905395507812,0.09964006394147873
1715439284666045000,0.795044921875,-0.0707082748413086,0.042407989501953125,0.08958891779184341
1715439284676050700,0.80505078125,-0.13090229034423828,0.07956314086914062,0.03657503053545952
1715439284686056400,0.815056396484375,-0.08220815658569336,0.10242938995361328,0.025620047003030777
1715439284696062200,0.825062255859375,0.022324085235595703,0.06355047225952148,0.10422391444444656
1715439284706068000,0.83506787109375,0.1345973014831543,0.07703590393066406,0.13150376081466675
1715439284716073700,0.84507373046875,0.14168930053710938,0.07586431503295898,0.10749106109142303
1715439284726079500,0.85507958984375,0.054841041564941406,0.06962013244628906,0.09873378276824951
1715439284736085500,0.86508544921875,-0.002235889434814453,0.06811046600341797,0.09025679528713226
1715439284746091300,0.87509130859375,0.04052162170410156,0.07604074478149414,0.13385051488876343
1715439284756097000,0.885096923828125,0.05895280838012695,0.09332942962646484,0.11123586446046829
1715439284766102800,0.895102783203125,0.04404306411743164,0.08686065673828125,0.1319718062877655
1715439284776108500,0.905108642578125,0.03416252136230469,0.08041906356811523,0.17147177457809448
1715439284786114300,0.9151142578125,0.02937030792236328,0.05972480773925781,0.1586366593837738
1715439284796120000,0.9251201171875,0.010824203491210938,0.07202863693237305,0.09359639137983322
1715439284806125800,0.935125732421875,0.007076740264892578,0.11199808120727539,0.01453358680009842
1715439284816131600,0.945131591796875,0.022796154022216797,0.11302661895751953,-0.030840005725622177
1715439284826137300,0.955137451171875,0.0341801643371582,0.12277412414550781,-0.061469756066799164
1715439284836143000,0.96514306640625,-0.020194530487060547,0.10373163223266602,-0.07743824273347855
1715439284846148900,0.97514892578125,-0.07380199432373047,0.08045291900634766,-0.022573404014110565
1715439284856155000,0.98515478515625,-0.09847068786621094,0.06720638275146484,0.0030475929379463196
1715439284866160600,0.99516064453125,-0.12785577774047852,0.04521656036376953,-0.014067158102989197
1715439284876166400,1.00516650390625,-0.18078136444091797,0.04295825958251953,-0.0029448717832565308
1715439284886172200,1.015172119140625,-0.19599390029907227,0.04164695739746094,0.02645120769739151
1715439284896178000,1.025177978515625,-0.18319463729858398,0.02675771713256836,0.008566975593566895
1715439284906183700,1.03518359375,-0.12816524505615234,0.030872344970703125,0.005704231560230255
1715439284916189400,1.045189453125,-0.13518667221069336,0.04896736145019531,0.0025128796696662903
1715439284926195200,1.0551953125,-0.1563568115234375,0.048079490661621094,-0.010105930268764496
1715439284936201000,1.065200927734375,-0.13965225219726562,0.02852487564086914,-0.003365620970726013
1715439284946206700,1.075206787109375,-0.15618276596069336,-0.00011968612670898438,-0.006369985640048981
1715439284956212500,1.08521240234375,-0.1537470817565918,-0.028136253356933594,0.03798992931842804
1715439284966218200,1.09521826171875,-0.07582426071166992,-0.06062746047973633,0.07376068830490112
1715439284976224300,1.105224365234375,-0.05987405776977539,-0.04139518737792969,0.09674319624900818
1715439284986230000,1.11522998046875,-0.07211065292358398,-0.008747577667236328,0.05055701732635498
1715439284996235800,1.12523583984375,-0.13585758209228516,0.023285865783691406,-0.1698167622089386
1715439285006241500,1.135241455078125,-0.18496227264404297,0.07894277572631836,-0.166838139295578
1715439285016247300,1.145247314453125,-0.22466564178466797,0.06395292282104492,-0.1648733913898468
1715439285026253000,1.155253173828125,-0.18478870391845703,0.031585693359375,-0.050230540335178375
1715439285036258800,1.1652587890625,-0.042777061462402344,-0.0370936393737793,0.08750881999731064
1715439285046264600,1.1752646484375,0.13016414642333984,-0.07677793502807617,0.16876836121082306
1715439285056270300,1.185270263671875,0.12235450744628906,-0.07456588745117188,0.09406832605600357
1715439285066276000,1.195276123046875,0.006800174713134766,-0.054021358489990234,0.17213302850723267
1715439285076281900,1.20528173828125,-0.1257333755493164,-0.07142877578735352,0.179324209690094
1715439285086287600,1.21528759765625,-0.2712440490722656,-0.012083053588867188,0.003332078456878662
1715439285096293600,1.225293701171875,-0.3032956123352051,0.015430927276611328,-0.009637251496315002
1715439285106299400,1.23529931640625,-0.2564425468444824,0.011340141296386719,-0.004470393061637878
1715439285116305200,1.24530517578125,-0.24984407424926758,0.03753662109375,-0.08087605983018875
1715439285126311000,1.255310791015625,-0.16498756408691406,0.07924652099609375,-0.08125871419906616
1715439285136316700,1.265316650390625,0.0024538040161132812,0.07402420043945312,-0.13431602716445923
1715439285146322400,1.275322509765625,0.2337346076965332,0.030486106872558594,-0.22930091619491577
1715439285156328200,1.285328125,0.42122507095336914,0.022719860076904297,-0.21831846237182617
1715439285166334000,1.295333984375,0.38244199752807617,0.0025777816772460938,-0.20270203053951263
1715439285176339700,1.305339599609375,0.2048654556274414,-0.0050601959228515625,-0.18355703353881836
1715439285186345500,1.315345458984375,0.007544040679931641,-0.022887229919433594,-0.0903046727180481
1715439285196351200,1.325351318359375,-0.18712234497070312,-0.058562278747558594,0.024972211569547653
1715439285206357000,1.33535693359375,-0.27185583114624023,-0.05422544479370117,0.07264671474695206
1715439285216363000,1.345363037109375,-0.25838756561279297,-0.047678470611572266,-0.003108188509941101
1715439285226368800,1.35536865234375,-0.17189311981201172,-0.005993366241455078,-0.05902900546789169
1715439285236374500,1.36537451171875,-0.017529964447021484,0.017619609832763672,-0.09984353184700012
1715439285246380300,1.37538037109375,0.15262079238891602,0.01313638687133789,-0.11229164898395538
1715439285256386000,1.385385986328125,0.3348379135131836,0.007907867431640625,-0.08713650703430176
1715439285266391800,1.395391845703125,0.4733142852783203,-0.0084686279296875,-0.053054459393024445
1715439285276397600,1.4053974609375,0.5271601676940918,-0.013113975524902344,-0.010139383375644684
1715439285286403300,1.4154033203125,0.5262374877929688,-0.020591259002685547,0.013654876500368118
1715439285296409000,1.4254091796875,0.4193859100341797,-0.030555248260498047,-0.0003402121365070343
1715439285306414800,1.435414794921875,0.25449323654174805,-0.01834869384765625,-0.03355921804904938
1715439285316420600,1.445420654296875,0.10710430145263672,-0.007036685943603516,-0.03888019174337387
1715439285326426400,1.45542626953125,0.02823781967163086,-0.019608497619628906,-0.049650683999061584
1715439285336432400,1.465432373046875,-0.0025682449340820312,-0.022167682647705078,-0.05157659575343132
1715439285346438100,1.475438232421875,-0.00045013427734375,-0.01935863494873047,-0.06348583847284317
1715439285356444000,1.48544384765625,0.02012348175048828,-0.0020842552185058594,-0.10373935103416443
1715439285366449700,1.49544970703125,0.05434083938598633,0.0009317398071289062,-0.16691133379936218
1715439285376455400,1.505455322265625,0.0832066535949707,0.008688926696777344,-0.17739951610565186
1715439285386461200,1.515461181640625,0.15430784225463867,0.006519794464111328,-0.121141716837883
1715439285396467000,1.525467041015625,0.18274641036987305,-0.015444278717041016,-0.10787759721279144
1715439285406472700,1.53547265625,0.1504054069519043,-0.01920318603515625,-0.09048113226890564
1715439285416478500,1.545478515625,0.1005396842956543,-0.033159732818603516,-0.06904294341802597
1715439285426484200,1.555484130859375,0.028384685516357422,-0.02379751205444336,-0.07165849953889847
1715439285436490000,1.565489990234375,-0.04733896255493164,-0.03334331512451172,-0.0558345727622509
1715439285446495700,1.575495849609375,-0.13176536560058594,-0.060947418212890625,-0.036024581640958786
1715439285456501800,1.585501708984375,-0.1922149658203125,-0.05405473709106445,-0.030522458255290985
1715439285466507500,1.595507568359375,-0.18699407577514648,-0.027063369750976562,-0.038713883608579636
1715439285476513300,1.60551318359375,-0.14074420928955078,-0.013271808624267578,-0.03659909963607788
1715439285486519000,1.61551904296875,-0.0677194595336914,-0.02249002456665039,-0.028982967138290405
1715439285496524800,1.62552490234375,0.04161214828491211,-0.04082155227661133,0.030968718230724335
1715439285506530600,1.635530517578125,0.11678123474121094,-0.04070615768432617,0.05328214913606644
1715439285516536000,1.6455361328125,0.18239164352416992,-0.02769613265991211,0.05718977749347687
1715439285526541800,1.655541748046875,0.17767620086669922,-0.011725425720214844,0.02820497751235962
1715439285536547600,1.665547607421875,0.1033945083618164,0.00290679931640625,0.008878059685230255
1715439285546553300,1.67555322265625,0.021361827850341797,0.007420063018798828,-0.0010977312922477722
1715439285556559000,1.68555908203125,-0.09253072738647461,0.007458686828613281,-0.01166360080242157
1715439285566564900,1.69556494140625,-0.18630743026733398,0.00818777084350586,0.019492439925670624
1715439285576570600,1.705570556640625,-0.21356821060180664,-0.018276214599609375,0.016485057771205902
1715439285586576400,1.715576416015625,-0.23664426803588867,-0.04793882369995117,0.055837519466876984
1715439285596582000,1.725581787109375,-0.18969249725341797,-0.052501678466796875,0.08593184500932693
1715439285606587600,1.735587646484375,-0.17753982543945312,-0.04172372817993164,0.05491036921739578
1715439285616593400,1.745593505859375,-0.08646154403686523,-0.03955793380737305,0.09577763080596924
1715439285626599200,1.75559912109375,-0.015945911407470703,-0.03720903396606445,0.09422184526920319
1715439285636605000,1.76560498046875,-0.031777381896972656,-0.020323753356933594,0.03646162897348404
1715439285646610700,1.775610595703125,-0.07164525985717773,-0.02171802520751953,0.007299631834030151
1715439285656616400,1.785616455078125,-0.06437206268310547,0.0058422088623046875,-0.0032597482204437256
1715439285666622200,1.795622314453125,-0.062256813049316406,0.03332185745239258,-0.07115104794502258
1715439285676628000,1.8056279296875,-0.003943920135498047,0.05123710632324219,-0.049110330641269684
1715439285686633500,1.815633544921875,0.04904460906982422,0.03551197052001953,-0.02752956748008728
1715439285696639200,1.82563916015625,0.06409215927124023,0.02406787872314453,0.013944759964942932
1715439285706645000,1.83564501953125,0.018283367156982422,0.11099624633789062,0.1697251796722412
1715439285716650800,1.845650634765625,-0.1304340362548828,0.18710756301879883,0.2969592213630676
1715439285726656500,1.855656494140625,-0.13172626495361328,-0.01950979232788086,0.05801776051521301
1715439285736662300,1.865662353515625,-0.07255029678344727,-0.08998775482177734,-0.14909754693508148
1715439285746668000,1.87566796875,-0.0618438720703125,-0.050507545471191406,-0.19955694675445557
1715439285756673800,1.885673828125,0.004927635192871094,-0.0348963737487793,-0.20426075160503387
1715439285766679300,1.89567919921875,0.08964681625366211,-0.057419776916503906,-0.22989782691001892
1715439285776685300,1.905685302734375,0.1690230369567871,-0.0380101203918457,-0.18642595410346985
1715439285786691000,1.915691162109375,0.2671623229980469,-0.0014538764953613281,-0.12547042965888977
1715439285796696800,1.92569677734375,0.25225114822387695,0.009190559387207031,-0.12194468826055527
1715439285806702600,1.93570263671875,0.15871429443359375,0.004228115081787109,-0.10853242129087448
1715439285816708400,1.945708251953125,0.06726884841918945,-0.005974769592285156,-0.04201503098011017
1715439285826714000,1.955714111328125,0.019915103912353516,-0.025658607482910156,-0.02225649356842041
1715439285836719900,1.965719970703125,0.0062351226806640625,-0.040230751037597656,-0.021062664687633514
1715439285846725600,1.9757255859375,-0.007349967956542969,-0.03085947036743164,-0.034675613045692444
1715439285856731400,1.9857314453125,0.01676321029663086,-0.02611541748046875,-0.035188525915145874
1715439285866737200,1.995737060546875,0.1254434585571289,-0.031090736389160156,-0.013026244938373566
1715439285876743000,2.005742919921875,0.17179536819458008,-0.017911911010742188,0.013190336525440216
1715439285886748700,2.015748779296875,0.15229225158691406,0.008260726928710938,-0.023034781217575073
1715439285896754700,2.025754638671875,0.07239532470703125,0.014634132385253906,-0.02656640112400055
1715439285906760400,2.035760498046875,0.01274251937866211,-0.021547317504882812,0.021085619926452637
1715439285916766200,2.04576611328125,0.0012402534484863281,-0.03365612030029297,0.039767906069755554
1715439285926772000,2.05577197265625,-0.01028585433959961,-0.031203746795654297,0.025714769959449768
1715439285936777700,2.06577783203125,-0.017272472381591797,-0.037824153900146484,0.07401956617832184
1715439285946783500,2.075783447265625,-0.024501800537109375,-0.04395723342895508,0.12262526154518127
1715439285956789200,2.085789306640625,-0.0037932395935058594,-0.04953336715698242,0.13401822745800018
1715439285966795000,2.095794921875,0.011498451232910156,-0.040517330169677734,0.15118201076984406
1715439285976800800,2.10580078125,0.002716541290283203,-0.021935462951660156,0.1259460598230362
1715439285986806500,2.115806640625,0.008143424987792969,-0.027140140533447266,0.12956249713897705
1715439285996812300,2.125812255859375,0.004150867462158203,-0.02292776107788086,0.10906699299812317
1715439286006818000,2.135818115234375,0.004803657531738281,-0.0374751091003418,0.07467563450336456
1715439286016824000,2.145823974609375,0.08576059341430664,-0.05209159851074219,0.06984645128250122
1715439286026829800,2.155829833984375,0.09999275207519531,-0.04353952407836914,0.00006808340549468994
1715439286036835600,2.165835693359375,0.019881248474121094,-0.021079063415527344,-0.026009775698184967
1715439286046841300,2.17584130859375,-0.0639486312866211,-0.0457000732421875,0.0002040266990661621
1715439286056847000,2.18584716796875,-0.12795448303222656,-0.050623416900634766,0.04462727904319763
1715439286066852900,2.195852783203125,-0.20105552673339844,-0.04520988464355469,-0.011432819068431854
1715439286076858600,2.205858642578125,-0.21274900436401367,0.003638744354248047,-0.020619578659534454
1715439286086864400,2.215864501953125,-0.16856861114501953,0.005501747131347656,-0.011284209787845612
1715439286096870100,2.2258701171875,-0.13017606735229492,0.012421607971191406,0.002513781189918518
1715439286106876000,2.2358759765625,-0.04555702209472656,0.005330562591552734,0.059000566601753235
1715439286116881700,2.245881591796875,0.028783321380615234,-0.01638317108154297,0.1293380707502365
1715439286126887400,2.255887451171875,0.04157447814941406,-0.029318809509277344,0.10946305096149445
1715439286136893400,2.2658935546875,-0.015848159790039062,-0.014477729797363281,0.00985872745513916
1715439286146899200,2.275899169921875,-0.07251358032226562,0.0050563812255859375,-0.060431793332099915
1715439286156905000,2.285905029296875,-0.12414741516113281,0.010829448699951172,-0.12035609036684036
1715439286166910700,2.29591064453125,-0.1571979522705078,-0.01051473617553711,-0.146668940782547
1715439286176916500,2.30591650390625,-0.13431406021118164,-0.025567054748535156,-0.11571382731199265
1715439286186922200,2.315922119140625,-0.037320613861083984,-0.04415607452392578,-0.11267898231744766
1715439286196928000,2.325927978515625,0.08101940155029297,-0.03827476501464844,-0.08460807055234909
1715439286206933800,2.335933837890625,0.17867612838745117,-0.03263998031616211,-0.04636223614215851
1715439286216939500,2.345939453125,0.19043540954589844,-0.01821136474609375,-0.04147461801767349
1715439286226945300,2.3559453125,0.1741042137145996,-0.018523693084716797,-0.009082295000553131
1715439286236951000,2.365950927734375,0.2009873390197754,-0.0006051063537597656,0.036291107535362244
1715439286246956800,2.375956787109375,0.21407032012939453,0.016170024871826172,0.03311634063720703
1715439286256962600,2.385962646484375,0.22312593460083008,0.03637838363647461,0.039266519248485565
1715439286266968600,2.395968505859375,0.20481538772583008,0.017426490783691406,0.03111214190721512
1715439286276974300,2.405974365234375,0.1690831184387207,0.030519485473632812,0.0369890034198761
1715439286286980000,2.41597998046875,0.08291864395141602,0.019005298614501953,0.009207934141159058
1715439286296985900,2.42598583984375,0.03607463836669922,0.012164115905761719,-0.014147721230983734
1715439286306991600,2.43599169921875,-0.014832496643066406,0.019719600677490234,-0.03277459740638733
1715439286316997400,2.445997314453125,-0.018292903900146484,-0.005268096923828125,-0.06518508493900299
1715439286327003100,2.456003173828125,0.029531478881835938,-0.010386466979980469,-0.02548682689666748
1715439286337009000,2.4660087890625,0.0764765739440918,-0.01063394546508789,-0.004206717014312744
1715439286347014700,2.4760146484375,0.08018207550048828,-0.02492523193359375,-0.006046086549758911
1715439286357020400,2.4860205078125,0.12191152572631836,-0.02531576156616211,0.02980645000934601
1715439286367026200,2.496026123046875,0.14979267120361328,-0.017362594604492188,0.03664040565490723
1715439286377032000,2.506031982421875,0.12174701690673828,-0.010696887969970703,0.014808788895606995
1715439286387038000,2.516037841796875,0.04778242111206055,-0.014327049255371094,0.0021574199199676514
1715439286397043700,2.526043701171875,-0.029577255249023438,-0.013262748718261719,-0.006491325795650482
1715439286407049500,2.536049560546875,-0.1155385971069336,-0.0022563934326171875,-0.03473895415663719
1715439286417055200,2.54605517578125,-0.19625234603881836,-0.013973712921142578,-0.025524217635393143
1715439286427061000,2.55606103515625,-0.2156519889831543,-0.019402027130126953,0.001987174153327942
1715439286437066800,2.566066650390625,-0.18888616561889648,-0.04689979553222656,-0.004227012395858765
1715439286447072500,2.576072509765625,-0.06901836395263672,-0.030873775482177734,-0.005420714616775513
1715439286457078300,2.586078369140625,0.044559478759765625,-0.01557779312133789,-0.02522096037864685
1715439286467084000,2.596083984375,0.039424896240234375,-0.015660762786865234,-0.03952203318476677
1715439286477089800,2.60608984375,-0.011950016021728516,-0.0024590492248535156,-0.030026759952306747
1715439286487095600,2.616095458984375,-0.07167434692382812,-0.008541584014892578,0.002476908266544342
1715439286497101300,2.626101318359375,-0.08338737487792969,-0.023866653442382812,0.048918746411800385
1715439286507107300,2.636107421875,-0.0954585075378418,-0.019492149353027344,0.05718780308961868
1715439286517113000,2.646113037109375,-0.07055854797363281,-0.014195919036865234,0.055956535041332245
1715439286527118800,2.656118896484375,0.038401126861572266,-0.027518272399902344,0.05511447787284851
1715439286537124600,2.66612451171875,0.1080789566040039,-0.04556083679199219,0.050238341093063354
1715439286547130400,2.67613037109375,0.1251392364501953,-0.03543424606323242,0.017882205545902252
1715439286557136100,2.68613623046875,0.10950613021850586,-0.0355067253112793,0.019186541438102722
1715439286567142000,2.696141845703125,0.09454631805419922,-0.036037445068359375,-0.0029127299785614014
1715439286577147600,2.706147705078125,0.0614924430847168,-0.027679920196533203,-0.006200380623340607
1715439286587153400,2.7161533203125,-0.04612874984741211,-0.019690990447998047,0.0037791579961776733
1715439286597159200,2.7261591796875,-0.11954116821289062,-0.03947162628173828,0.05976531654596329
1715439286607165000,2.7361650390625,-0.0887594223022461,-0.029980182647705078,0.06264083087444305
1715439286617170700,2.746170654296875,-0.002060413360595703,-0.020572185516357422,0.08474855870008469
1715439286627176700,2.7561767578125,0.06462240219116211,-0.02104806900024414,0.04663417488336563
1715439286637182500,2.766182373046875,0.10747146606445312,-0.008312225341796875,0.010283201932907104
1715439286647188200,2.776188232421875,0.10826396942138672,-0.011065959930419922,-0.043620575219392776
1715439286657194000,2.786194091796875,0.029413223266601562,0.014017581939697266,-0.11994576454162598
1715439286667199700,2.79619970703125,-0.029492855072021484,0.024793148040771484,-0.14834356307983398
1715439286677205500,2.80620556640625,-0.07404851913452148,0.03623819351196289,-0.1771443784236908
1715439286687211300,2.816211181640625,-0.11903047561645508,0.03467750549316406,-0.1413882076740265
1715439286697217000,2.826217041015625,-0.11298513412475586,0.030126571655273438,-0.1223427802324295
1715439286707222800,2.836222900390625,-0.07054424285888672,0.0269622802734375,-0.06291288137435913
1715439286717228500,2.846228515625,0.05082130432128906,0.038442134857177734,0.018506869673728943
1715439286727234300,2.856234375,0.18069219589233398,0.029674530029296875,0.05620603263378143
1715439286737240000,2.866239990234375,0.2442159652709961,0.01914215087890625,0.03200177848339081
1715439286747246000,2.87624609375,0.1292109489440918,0.0024704933166503906,0.022416256368160248
1715439286757251800,2.886251953125,-0.0400395393371582,-0.02371978759765625,0.041791900992393494
1715439286767257600,2.896257568359375,-0.16044330596923828,-0.04832172393798828,0.09518354386091232
1715439286777263400,2.906263427734375,-0.04932260513305664,-0.07121992111206055,0.17809394001960754
1715439286787269000,2.91626904296875,0.06941938400268555,-0.07028484344482422,0.1673424392938614
1715439286797275000,2.92627490234375,0.12566137313842773,-0.051308631896972656,0.11546379327774048
1715439286807280600,2.93628076171875,0.18172979354858398,-0.024077415466308594,0.03184451907873154
1715439286817286400,2.946286376953125,0.1814122200012207,-0.01728343963623047,-0.04156913980841637
1715439286827292200,2.956292236328125,0.1629652976989746,-0.020783424377441406,-0.010462410748004913
1715439286837298000,2.9662978515625,0.20223569869995117,-0.03934907913208008,0.029904581606388092
1715439286847303700,2.9763037109375,0.24716854095458984,-0.03582429885864258,0.01307445764541626
1715439286857309400,2.986309326171875,0.2504405975341797,-0.038672447204589844,0.04413917660713196
1715439286867315500,2.9963154296875,0.2832450866699219,-0.005253314971923828,0.013549961149692535
1715439286877321200,3.0063212890625,0.28430986404418945,0.006869316101074219,-0.054435230791568756
1715439286887327000,3.016326904296875,0.2117919921875,0.02631092071533203,-0.07919793576002121
1715439286897332700,3.026332763671875,0.12287330627441406,0.011191844940185547,-0.08986406773328781
1715439286907338500,3.03633837890625,0.06920003890991211,-0.009192466735839844,-0.053317319601774216
1715439286917344300,3.04634423828125,0.012172698974609375,-0.02024698257446289,-0.012828197330236435
1715439286927350000,3.05635009765625,-0.09572267532348633,-0.03571796417236328,0.030546799302101135
1715439286937355800,3.066355712890625,-0.17901229858398438,-0.031231403350830078,0.05800119787454605
1715439286947361500,3.076361572265625,-0.10156679153442383,-0.025955677032470703,0.051722534000873566
1715439286957367300,3.0863671875,-0.063262939453125,-0.006390094757080078,0.08776018768548965
1715439286967373000,3.096373046875,-0.1912994384765625,0.009143352508544922,0.05271380394697189
1715439286977378800,3.10637890625,-0.23864412307739258,-0.0069408416748046875,0.019376643002033234
1715439286987384800,3.116384765625,-0.18318700790405273,-0.002254009246826172,0.021421782672405243
1715439286997390600,3.126390625,-0.16761112213134766,-0.005703449249267578,-0.012826431542634964
1715439287007396400,3.136396240234375,-0.1487278938293457,-0.01730632781982422,-0.031861286610364914
1715439287017402000,3.146402099609375,-0.06523704528808594,0.0005879402160644531,-0.02210945636034012
1715439287027408000,3.156407958984375,0.17717790603637695,-0.014994621276855469,0.01123606413602829
1715439287037413600,3.16641357421875,0.29943132400512695,-0.013118743896484375,-0.026834525167942047
1715439287047419400,3.17641943359375,0.24746370315551758,0.010192394256591797,-0.00431615486741066
1715439287057425200,3.186425048828125,0.15537595748901367,-0.020082473754882812,-0.016020558774471283
1715439287067431000,3.196430908203125,0.10837793350219727,0.0007696151733398438,-0.032753750681877136
1715439287077436700,3.206436767578125,0.006337165832519531,-0.017039775848388672,-0.05950362980365753
1715439287087442400,3.2164423828125,-0.12708568572998047,-0.03437948226928711,-0.038790762424468994
1715439287097448200,3.2264482421875,-0.2739143371582031,-0.02630901336669922,-0.0468190535902977
1715439287107454200,3.2364541015625,-0.18416118621826172,-0.031148433685302734,0.011939972639083862
1715439287117460000,3.2464599609375,-0.1910848617553711,-0.011316776275634766,-0.019304409623146057
1715439287127465700,3.2564658203125,-0.11002779006958008,0.023941516876220703,-0.0540025532245636
1715439287137471500,3.266471435546875,0.14839410781860352,0.0023393630981445312,0.011122142896056175
1715439287147477200,3.276477294921875,0.22932195663452148,0.02716207504272461,-0.047116998583078384
1715439287157483000,3.28648291015625,0.25365257263183594,0.003246784210205078,-0.01911976747214794
1715439287167488800,3.29648876953125,0.23646020889282227,-0.021506786346435547,0.03275579959154129
1715439287177494500,3.30649462890625,0.25356006622314453,-0.046860694885253906,0.06161001697182655
1715439287187500300,3.316500244140625,0.2150721549987793,-0.025861740112304688,-0.008607402443885803
1715439287197506000,3.326506103515625,0.0788884162902832,-0.0009961128234863281,-0.05072252079844475
1715439287207511800,3.33651171875,-0.03623628616333008,-0.05178546905517578,0.005864579696208239
1715439287217517600,3.346517578125,-0.055466651916503906,-0.04968833923339844,0.043255001306533813
1715439287227523600,3.356523681640625,-0.06493568420410156,-0.03347349166870117,-0.04740056395530701
1715439287237529300,3.366529296875,-0.11218833923339844,-0.01250314712524414,-0.05715801194310188
1715439287247535000,3.37653515625,-0.20594024658203125,-0.02459859848022461,-0.02517945133149624
1715439287257540900,3.386540771484375,-0.3556556701660156,-0.026039600372314453,-0.008734190836548805
1715439287267546600,3.396546630859375,-0.49515771865844727,-0.04461097717285156,0.03503158688545227
1715439287277552400,3.406552490234375,-0.5596003532409668,-0.05092430114746094,0.058581024408340454
1715439287287558100,3.41655810546875,-0.5644421577453613,-0.059250831604003906,0.04349026083946228
1715439287297564000,3.42656396484375,-0.45365285873413086,-0.051235198974609375,0.0759546086192131
1715439287307569700,3.436569580078125,-0.3271470069885254,-0.04213762283325195,0.022841546684503555
1715439287317575400,3.446575439453125,-0.23638486862182617,-0.04196739196777344,-0.02575233019888401
1715439287327581200,3.456581298828125,-0.16589641571044922,-0.06070518493652344,0.015291132964193821
1715439287337587000,3.4665869140625,-0.1903085708618164,-0.06543111801147461,0.036259185522794724
1715439287347593000,3.476593017578125,-0.2895050048828125,-0.06551027297973633,0.031709540635347366
1715439287357598700,3.4865986328125,-0.3307676315307617,-0.07479190826416016,0.07712860405445099
1715439287367604500,3.4966044921875,-0.3713350296020508,-0.07450151443481445,0.07225146144628525
1715439287377610200,3.5066103515625,-0.4161362648010254,-0.04575347900390625,-0.01133578922599554
1715439287387616000,3.516615966796875,-0.36186647415161133,-0.01691913604736328,-0.04127006605267525
1715439287397621800,3.526621826171875,-0.1570897102355957,-0.01274871826171875,-0.026705347001552582
1715439287407627500,3.53662744140625,-0.033895015716552734,-0.033888816833496094,-0.02425539866089821
1715439287417633300,3.54663330078125,-0.009011268615722656,-0.04766845703125,-0.02194998413324356
1715439287427639000,3.55663916015625,-0.26931190490722656,-0.14352893829345703,0.0007627978920936584
1715439287437644800,3.566644775390625,-0.6945252418518066,-0.172088623046875,-0.0024605542421340942
1715439287447650600,3.576650634765625,-1.129706859588623,-0.1738886833190918,-0.044546179473400116
1715439287457656300,3.58665625,-1.5262994766235352,-0.1838970184326172,-0.13445022702217102
1715439287467662300,3.596662353515625,-1.7416977882385254,-0.1712350845336914,-0.17249195277690887
1715439287477668000,3.606668212890625,-1.8794736862182617,-0.16295433044433594,-0.25916895270347595
1715439287487673900,3.616673828125,-1.9796571731567383,-0.18139123916625977,-0.3862001299858093
1715439287497679600,3.6266796875,-2.0868992805480957,-0.2186899185180664,-0.4098503887653351
1715439287507685400,3.636685302734375,-2.145279884338379,-0.2804889678955078,-0.4172390103340149
1715439287517691100,3.646691162109375,-2.2029995918273926,-0.3418564796447754,-0.42291557788848877
1715439287527697000,3.65669677734375,-2.092804431915283,-0.4211745262145996,-0.3007006049156189
1715439287537702700,3.66670263671875,-1.8469438552856445,-0.5094428062438965,-0.21737544238567352
1715439287547708700,3.676708740234375,-1.707592487335205,-0.5164766311645508,-0.2749900817871094
1715439287557714400,3.68671435546875,-1.6069083213806152,-0.5469794273376465,-0.26427966356277466
1715439287567720200,3.69672021484375,-1.6155052185058594,-0.5764603614807129,-0.3553379774093628
1715439287577726000,3.706725830078125,-1.7243056297302246,-0.6117210388183594,-0.32116788625717163
1715439287587732000,3.71673193359375,-1.5142278671264648,-0.7406859397888184,-0.30523616075515747
1715439287597737700,3.72673779296875,-1.6107745170593262,-0.900428295135498,-0.16894866526126862
1715439287607743500,3.736743408203125,-1.6687698364257812,-1.1086158752441406,0.09494030475616455
1715439287617749500,3.74674951171875,-1.6351666450500488,-0.9960098266601562,0.37025517225265503
1715439287627755300,3.75675537109375,-1.6041450500488281,-1.2890877723693848,0.6589491367340088
1715439287637761000,3.766760986328125,-1.543961524963379,-1.4824495315551758,0.7161343693733215
1715439287647766800,3.776766845703125,-1.3228917121887207,-1.4453632831573486,0.9137004613876343
1715439287657772800,3.786772705078125,-1.0105342864990234,-1.6397831439971924,0.5042707324028015
1715439287667778600,3.796778564453125,-0.8627538681030273,-1.6335062980651855,0.23888230323791504
1715439287677784300,3.806784423828125,-1.016770362854004,-1.5124998092651367,0.09083020687103271
1715439287687790300,3.816790283203125,-0.9181356430053711,-1.485314130783081,-0.3803335428237915
1715439287697796000,3.826796142578125,-0.5044441223144531,-1.4513814449310303,-0.4681607186794281
1715439287707801900,3.8368017578125,0.09119987487792969,-1.4502757787704468,-0.4380977153778076
1715439287717807600,3.8468076171875,1.0381221771240234,-1.4067211151123047,-0.24448662996292114
1715439287727813600,3.856813720703125,1.7599906921386719,-1.3471522331237793,-0.251640260219574
1715439287737819400,3.8668193359375,2.2285499572753906,-0.6245149970054626,0.11040639877319336
1715439287747825200,3.8768251953125,2.7924118041992188,-0.602408766746521,0.607675313949585
1715439287757831200,3.8868310546875,2.9675045013427734,-0.9494848251342773,0.30116045475006104
1715439287767837000,3.8968369140625,2.5843420028686523,-0.9835131764411926,0.28707873821258545
1715439287777842700,3.9068427734375,2.3146238327026367,-1.142716884613037,0.6881033778190613
1715439287787848400,3.916848388671875,2.323467254638672,-0.9916020035743713,1.209535002708435
1715439287797854500,3.9268544921875,2.2556934356689453,-0.7968833446502686,0.8781265020370483
1715439287807860200,3.936860107421875,1.8857593536376953,-0.4859194755554199,0.3384895324707031
1715439287817866000,3.946865966796875,1.2946224212646484,-0.46977493166923523,0.06676644086837769
1715439287827871700,3.956871826171875,0.7549667358398438,-0.5544878840446472,-0.14961028099060059
1715439287837877800,3.966877685546875,0.5104846954345703,-0.605242908000946,-0.3169160485267639
1715439287847883500,3.976883544921875,0.4124755859375,-0.6858192086219788,-0.34253382682800293
1715439287857889300,3.98688916015625,0.6179838180541992,-0.5995570421218872,-0.164475679397583
1715439287867895000,3.99689501953125,1.3741998672485352,-0.42773139476776123,-0.331421434879303
1715439287877900800,4.00690087890625,1.6953001022338867,-0.6788674592971802,-0.4028873145580292
1715439287887906600,4.016906494140625,1.8399829864501953,-0.46032869815826416,0.2057260274887085
1715439287897912300,4.026912353515625,2.314183235168457,-0.44019758701324463,0.09224861860275269
1715439287907918000,4.03691796875,2.4805517196655273,-0.2741062641143799,0.11225974559783936
1715439287917923800,4.046923828125,2.5730810165405273,0.07119321823120117,0.1582697033882141
1715439287927929600,4.0569296875,2.405851364135742,-0.3006633520126343,0.15501970052719116
1715439287937935400,4.066935302734375,1.760268211364746,-0.2654900550842285,0.3905535340309143
1715439287947941000,4.076941162109375,1.5454473495483398,-0.4551832675933838,0.3140232563018799
1715439287957947100,4.086947021484375,1.6596202850341797,-0.3504002094268799,0.48827117681503296
1715439287967953000,4.096952880859375,1.7818641662597656,-0.16707754135131836,0.26151561737060547
1715439287977958700,4.106958740234375,1.6779212951660156,-0.1401689052581787,-0.056259095668792725
1715439287987964400,4.11696435546875,1.3964309692382812,-0.2391822338104248,0.025867938995361328
1715439287997970200,4.12697021484375,1.0960369110107422,-0.21308398246765137,0.18540775775909424
1715439288007976000,4.136975830078125,1.0729665756225586,-0.19020771980285645,0.2376101016998291
1715439288017981700,4.146981689453125,1.2495708465576172,-0.1817162036895752,0.15522044897079468
1715439288027987500,4.156987548828125,1.3477458953857422,-0.12263059616088867,0.13956397771835327
1715439288037993200,4.1669931640625,1.2529258728027344,-0.09477543830871582,0.10367292165756226
1715439288047999000,4.1769990234375,0.9178638458251953,-0.1543717384338379,0.0741308331489563
1715439288058004700,4.187004638671875,0.5964145660400391,-0.2616724967956543,0.23083925247192383
1715439288068010500,4.197010498046875,0.30364322662353516,-0.27091097831726074,0.22237026691436768
1715439288078016500,4.2070166015625,0.00244140625,-0.23633146286010742,0.20200711488723755
1715439288088022300,4.217022216796875,-0.11082935333251953,-0.21823978424072266,0.20288455486297607
1715439288098028000,4.227028076171875,-0.12758731842041016,-0.1642904281616211,0.2939586639404297
1715439288108033800,4.23703369140625,-0.12436389923095703,-0.12180495262145996,0.16476047039031982
1715439288118039600,4.24703955078125,-0.04872703552246094,-0.1054983139038086,0.08268457651138306
1715439288128045300,4.25704541015625,0.06046104431152344,-0.07393574714660645,0.13440626859664917
1715439288138051000,4.267051025390625,0.1644124984741211,-0.0718526840209961,0.09574264287948608
1715439288148056800,4.277056884765625,0.34875965118408203,-0.08600473403930664,-0.018091320991516113
1715439288158062600,4.2870625,0.5457801818847656,-0.08033108711242676,0.08535563945770264
1715439288168068400,4.297068359375,0.7501983642578125,-0.056711673736572266,0.046624839305877686
1715439288178074000,4.30707421875,0.6515665054321289,-0.015429258346557617,-0.06427007913589478
1715439288188079900,4.317079833984375,0.33246517181396484,-0.025846242904663086,-0.03201344609260559
1715439288198086000,4.3270859375,-0.02892017364501953,-0.02703070640563965,0.005391716957092285
1715439288208091600,4.337091552734375,-0.24055957794189453,-0.05430197715759277,-0.06829580664634705
1715439288218097400,4.347097412109375,-0.3166933059692383,-0.044405221939086914,-0.08444860577583313
1715439288228103200,4.357103271484375,-0.2910642623901367,-0.035639286041259766,-0.1348097026348114
1715439288238109000,4.36710888671875,-0.11188030242919922,-0.09605956077575684,-0.02943316102027893
1715439288248114700,4.37711474609375,0.1669168472290039,-0.0805962085723877,0.04349765181541443
1715439288258120400,4.387120361328125,0.30573081970214844,-0.03919529914855957,-0.030942589044570923
1715439288268126200,4.397126220703125,0.15223979949951172,-0.06195545196533203,-0.017931610345840454
1715439288278132000,4.407132080078125,0.09906864166259766,-0.15182900428771973,0.01079133152961731
1715439288288137700,4.4171376953125,0.11235618591308594,-0.18088436126708984,-0.07199522852897644
1715439288298143500,4.4271435546875,-0.14191436767578125,-0.13788866996765137,-0.03164857625961304
1715439288308149200,4.437149169921875,0.048851966857910156,-0.25657033920288086,-0.028096944093704224
1715439288318155300,4.4471552734375,0.1291360855102539,-0.14630436897277832,-0.005128979682922363
1715439288328161000,4.4571611328125,0.19475746154785156,-0.14189648628234863,0.06159815192222595
1715439288338166800,4.467166748046875,0.13156604766845703,-0.15563416481018066,0.22810259461402893
1715439288348172500,4.477172607421875,0.35487842559814453,-0.1994609832763672,0.20422348380088806
1715439288358178300,4.48717822265625,0.2382526397705078,-0.11583828926086426,0.022472649812698364
1715439288368184000,4.49718408203125,0.1743183135986328,-0.1766207218170166,0.04841485619544983
1715439288378189800,4.50718994140625,0.08675384521484375,-0.15587782859802246,0.09695842862129211
1715439288388195600,4.517195556640625,0.08095455169677734,-0.0909116268157959,0.03571516275405884
1715439288398201300,4.527201416015625,0.20443058013916016,-0.02022719383239746,-0.04902924597263336
1715439288408207000,4.53720703125,0.3323516845703125,-0.0023474693298339844,0.00028768181800842285
1715439288418212900,4.547212890625,0.2497262954711914,-0.03227066993713379,0.08059608936309814
1715439288428218600,4.557218505859375,0.17402935028076172,-0.0955803394317627,0.024878650903701782
1715439288438224400,4.567224365234375,0.0668191909790039,-0.058341026306152344,0.0024771690368652344
1715439288448230400,4.57723046875,-0.04755687713623047,-0.09998416900634766,0.07078307867050171
1715439288458236200,4.587236083984375,0.1132516860961914,-0.15005970001220703,0.05419941246509552
1715439288468242000,4.597241943359375,0.04102516174316406,-0.13708901405334473,-0.03635294735431671
1715439288478247700,4.60724755859375,0.0782766342163086,-0.19975495338439941,0.006506770849227905
1715439288488253400,4.61725341796875,0.24614810943603516,-0.16908574104309082,0.02380239963531494
1715439288498259200,4.62725927734375,0.25965404510498047,-0.10882258415222168,-0.020458385348320007
1715439288508265000,4.637264892578125,0.26305580139160156,-0.1075437068939209,0.009625047445297241
1715439288518270700,4.647270751953125,-0.025785446166992188,-0.06510782241821289,0.02263374626636505
1715439288528276500,4.6572763671875,-0.18710803985595703,-0.06477165222167969,0.14349932968616486
1715439288538282200,4.6672822265625,-0.1711597442626953,-0.07730293273925781,0.21460047364234924
1715439288548288000,4.6772880859375,-0.19255352020263672,-0.021842479705810547,0.08258597552776337
1715439288558293800,4.687293701171875,-0.22227954864501953,-0.04497790336608887,0.08529399335384369
1715439288568299800,4.6972998046875,-0.1801748275756836,-0.08410358428955078,0.11900560557842255
1715439288578305500,4.707305419921875,-0.08646202087402344,-0.05018949508666992,0.0893479734659195
1715439288588311300,4.717311279296875,0.12807178497314453,-0.02646660804748535,0.07851728796958923
1715439288598317000,4.727317138671875,0.2771625518798828,-0.010230541229248047,0.04488007724285126
1715439288608322800,4.73732275390625,0.28171443939208984,-0.006554603576660156,-0.02034972608089447
1715439288618328600,4.74732861328125,0.2054271697998047,-0.02895522117614746,0.0116557776927948
1715439288628334300,4.757334228515625,0.12060260772705078,-0.052272796630859375,0.012020885944366455
1715439288638340000,4.767340087890625,0.11231231689453125,-0.04763436317443848,-0.033311352133750916
1715439288648345900,4.777345947265625,0.0522918701171875,-0.019806623458862305,-0.12483104318380356
1715439288658351600,4.7873515625,-0.07713699340820312,-0.07637381553649902,-0.12979614734649658
1715439288668357400,4.797357421875,-0.1521129608154297,-0.12068343162536621,-0.025996893644332886
1715439288678363100,4.807363037109375,-0.09341049194335938,-0.09614968299865723,-0.008702278137207031
1715439288688369200,4.817369140625,0.0069408416748046875,-0.08526206016540527,0.007782459259033203
1715439288698375000,4.827375,0.09620952606201172,-0.08397531509399414,-0.004582434892654419
1715439288708380700,4.837380615234375,0.08972644805908203,-0.0735921859741211,-0.011464953422546387
1715439288718386400,4.847386474609375,0.055103302001953125,-0.06809306144714355,-0.0042321085929870605
1715439288728392200,4.85739208984375,0.11064624786376953,-0.06699848175048828,-0.03097076714038849
1715439288738398000,4.86739794921875,0.1840963363647461,-0.08014273643493652,-0.02072983980178833
1715439288748403700,4.87740380859375,0.2605743408203125,-0.08533692359924316,0.04130658507347107
1715439288758409500,4.887409423828125,0.2832498550415039,-0.08831405639648438,0.0007024705410003662
1715439288768415200,4.897415283203125,0.20618915557861328,-0.05515480041503906,-0.06469093263149261
1715439288778421000,4.9074208984375,0.0927877426147461,-0.069427490234375,-0.010324373841285706
1715439288788426800,4.9174267578125,0.009815216064453125,-0.058919429779052734,0.014223858714103699
1715439288798432500,4.9274326171875,-0.014912605285644531,-0.08025050163269043,0.03787298500537872
1715439288808438500,4.9374384765625,0.0833282470703125,-0.0771787166595459,0.051941946148872375
1715439288818444300,4.9474443359375,0.222137451171875,-0.03718280792236328,0.05581660568714142
1715439288828450000,4.957449951171875,0.028975486755371094,-0.026302099227905273,0.06010420620441437
1715439288838455800,4.967455810546875,0.3000507354736328,-0.12549996376037598,0.11169806122779846
1715439288848461600,4.977461669921875,0.18475341796875,-0.02237677574157715,0.048725977540016174
1715439288858467300,4.98746728515625,0.09917736053466797,-0.06864237785339355,0.14297839999198914
1715439288868473000,4.99747314453125,0.010304450988769531,-0.062462568283081055,0.17408816516399384
1715439288878478800,5.007478759765625,-0.10500431060791016,-0.04579019546508789,0.09525170922279358
1715439288888484600,5.017484619140625,-0.13321495056152344,-0.03262138366699219,0.06764905154705048
1715439288898490400,5.027490478515625,-0.1323528289794922,-0.07017779350280762,0.07266606390476227
1715439288908496100,5.03749609375,-0.14531230926513672,-0.03058171272277832,0.0017603635787963867
1715439288918502000,5.047501953125,-0.11537933349609375,-0.023504972457885742,-0.0829077661037445
1715439288928508000,5.0575078125,-0.09980487823486328,-0.057916879653930664,-0.0487668514251709
1715439288938513700,5.067513671875,-0.08440113067626953,-0.05838918685913086,-0.03300459682941437
1715439288948519400,5.07751953125,-0.045780181884765625,-0.05433797836303711,-0.03965125232934952
1715439288958525200,5.087525146484375,-0.03610992431640625,-0.04113054275512695,-0.03636840730905533
1715439288968531000,5.097531005859375,-0.05952930450439453,-0.037459611892700195,0.01828181743621826
1715439288978536700,5.10753662109375,-0.08720970153808594,-0.028948068618774414,0.057394176721572876
1715439288988542500,5.11754248046875,-0.25535011291503906,0.018477678298950195,0.03623111546039581
1715439288998548500,5.127548583984375,-0.08138656616210938,-0.05151057243347168,0.00614948570728302
1715439289008554200,5.13755419921875,-0.1407318115234375,0.00789189338684082,-0.0019027963280677795
1715439289018560000,5.14756005859375,-0.06711387634277344,-0.04620838165283203,0.07929220795631409
1715439289028565800,5.157565673828125,0.0006246566772460938,-0.028586626052856445,0.08336882293224335
1715439289038571800,5.16757177734375,0.043852806091308594,-0.029598712921142578,0.0520796924829483
1715439289048577500,5.17757763671875,0.10062694549560547,-0.025487184524536133,0.061230748891830444
1715439289058583300,5.187583251953125,0.15621662139892578,-0.055304527282714844,0.08474750816822052
1715439289068589300,5.19758935546875,0.1447458267211914,-0.05717182159423828,-0.00929926335811615
1715439289078595000,5.207594970703125,0.14749431610107422,-0.06881475448608398,-0.05957033485174179
1715439289088600800,5.217600830078125,0.15478992462158203,-0.09949111938476562,0.004875466227531433
1715439289098606600,5.227606689453125,0.11938190460205078,-0.1303541660308838,0.027235567569732666
1715439289108612600,5.237612548828125,0.08444881439208984,-0.13284564018249512,-0.015949100255966187
1715439289118618400,5.247618408203125,0.07363605499267578,-0.1023261547088623,-0.010873004794120789
1715439289128624000,5.2576240234375,0.07239627838134766,-0.06299281120300293,-0.010611191391944885
1715439289138630100,5.267630126953125,0.014674186706542969,-0.038439273834228516,-0.015036135911941528
1715439289148636000,5.277635986328125,-0.05136680603027344,-0.013797283172607422,-0.01968589425086975
1715439289158641700,5.2876416015625,-0.0924997329711914,-0.021533966064453125,-0.010383635759353638
1715439289168647400,5.2976474609375,-0.08077812194824219,-0.02775740623474121,-0.03001672774553299
1715439289178653400,5.3076533203125,0.06283283233642578,-0.0424041748046875,-0.04048129916191101
1715439289188659200,5.3176591796875,0.19935989379882812,-0.03326725959777832,-0.04711037129163742
1715439289198665000,5.3276650390625,0.31449222564697266,-0.034891366958618164,-0.04126869887113571
1715439289208671000,5.3376708984375,0.3236083984375,-0.019640684127807617,-0.05991291254758835
1715439289218676700,5.3476767578125,0.2189922332763672,0.0072956085205078125,-0.035992205142974854
1715439289228682500,5.3576826171875,0.12977027893066406,-0.0008702278137207031,0.05987679958343506
1715439289238688300,5.367688232421875,0.01817035675048828,-0.01941847801208496,0.04779024422168732
1715439289248694300,5.3776943359375,-0.15267562866210938,0.009831905364990234,-0.015711277723312378
1715439289258700000,5.387699951171875,-0.2543067932128906,-0.0020761489868164062,0.01617485284805298
1715439289268705800,5.397705810546875,-0.24550437927246094,-0.026216506958007812,0.02889499068260193
1715439289278711800,5.4077119140625,-0.18950843811035156,-0.02070450782775879,0.03241109848022461
1715439289288717600,5.417717529296875,-0.05432605743408203,-0.0008640289306640625,0.04553253948688507
1715439289298723300,5.427723388671875,0.1769704818725586,0.016844511032104492,0.06520317494869232
1715439289308729000,5.43772900390625,0.2247142791748047,0.022047996520996094,0.03008255362510681
1715439289318735000,5.447735107421875,0.11123371124267578,-0.007082462310791016,-0.004294171929359436
1715439289328740900,5.457740966796875,0.009218215942382812,-0.044638872146606445,0.05500905215740204
1715439289338746600,5.46774658203125,0.0032501220703125,-0.0668478012084961,0.10759226977825165
1715439289348752400,5.47775244140625,0.06810665130615234,-0.07426571846008301,0.0783035010099411
1715439289358758100,5.487758056640625,0.0894775390625,-0.06292963027954102,0.03873723745346069
1715439289368764000,5.497763916015625,0.06337928771972656,-0.05668973922729492,0.0032676756381988525
1715439289378769700,5.507769775390625,-0.02807331085205078,-0.05947279930114746,0.0013488084077835083
1715439289388775400,5.517775390625,-0.07063579559326172,-0.051691293716430664,-0.004895836114883423
1715439289398781200,5.52778125,-0.1356945037841797,-0.04745030403137207,-0.020453572273254395
1715439289408787000,5.537786865234375,-0.20860004425048828,-0.06502151489257812,-0.02735409140586853
1715439289418793000,5.54779296875,-0.07277870178222656,-0.043340444564819336,0.06957276165485382
1715439289428798700,5.557798828125,0.1264505386352539,-0.018125295639038086,0.09624189138412476
1715439289438804500,5.567804443359375,0.1995868682861328,0.0006532669067382812,0.02873733639717102
1715439289448810200,5.577810302734375,0.1536579132080078,0.013807296752929688,0.017612293362617493
1715439289458816000,5.58781591796875,0.014454841613769531,-0.0058231353759765625,0.01934950053691864
1715439289468821800,5.59782177734375,-0.0702199935913086,-0.05659222602844238,0.01983441412448883
1715439289478827500,5.60782763671875,-0.01682758331298828,-0.04491114616394043,0.010716915130615234
1715439289488833300,5.617833251953125,0.06846046447753906,-0.005770444869995117,-0.09139703214168549
1715439289498839000,5.627839111328125,0.1003713607788086,0.003889322280883789,-0.1253303438425064
1715439289508844800,5.6378447265625,0.09868907928466797,-0.015252113342285156,-0.0786224827170372
1715439289518850600,5.6478505859375,0.04526805877685547,-0.03406381607055664,-0.09978165477514267
1715439289528856300,5.657856201171875,-0.06829357147216797,-0.0472414493560791,-0.1026962623000145
1715439289538862300,5.6678623046875,-0.21715641021728516,-0.03955507278442383,-0.05861879885196686
1715439289548868000,5.6778681640625,-0.16991519927978516,-0.011058807373046875,-0.08198662102222443
1715439289558873900,5.687873779296875,-0.00096893310546875,0.012554407119750977,-0.04312506318092346
1715439289568879600,5.697879638671875,0.10371685028076172,0.011433839797973633,-0.017838910222053528
1715439289578885400,5.707885498046875,0.10761642456054688,0.023855924606323242,0.002564534544944763
1715439289588891100,5.71789111328125,0.2006397247314453,0.025650739669799805,0.05139939486980438
1715439289598897000,5.72789697265625,0.30063819885253906,-0.01817154884338379,0.11092118918895721
1715439289608902700,5.737902587890625,0.23792171478271484,-0.02710556983947754,0.1097518801689148
1715439289618908400,5.747908447265625,0.13345050811767578,-0.004540443420410156,0.02875123918056488
1715439289628914200,5.7579140625,-0.0020627975463867188,-0.014812231063842773,0.003931701183319092
1715439289638920000,5.767919921875,-0.11601924896240234,-0.06088614463806152,0.08699813485145569
1715439289648925700,5.77792578125,-0.12868881225585938,-0.0666348934173584,0.0880308598279953
1715439289658931700,5.787931640625,-0.14069747924804688,-0.0659785270690918,0.059522733092308044
1715439289668937500,5.7979375,-0.10496139526367188,-0.06373262405395508,0.02521035075187683
1715439289678943200,5.807943115234375,0.033987998962402344,-0.06072044372558594,0.014766573905944824
1715439289688949000,5.817948974609375,0.17046070098876953,-0.06306338310241699,0.03307396173477173
1715439289698954800,5.827954833984375,0.18652725219726562,-0.029290199279785156,0.022975265979766846
1715439289708960500,5.83796044921875,0.17360877990722656,0.002225160598754883,0.023385345935821533
1715439289718966300,5.84796630859375,0.1697063446044922,0.03100752830505371,0.039433568716049194
1715439289728972000,5.857971923828125,0.0853738784790039,0.010714054107666016,0.03379175066947937
1715439289738977800,5.867977783203125,-0.011754035949707031,0.009388446807861328,0.010283708572387695
1715439289748983600,5.877983642578125,-0.10714149475097656,0.003766775131225586,0.024258911609649658
1715439289758989300,5.8879892578125,-0.16777801513671875,-0.03872942924499512,-0.014393121004104614
1715439289768995000,5.8979951171875,-0.19881057739257812,-0.04154229164123535,-0.01958903670310974
1715439289779001000,5.9080009765625,-0.14884281158447266,-0.04261064529418945,-0.05297541618347168
1715439289789006800,5.9180068359375,-0.05226898193359375,-0.042349815368652344,-0.1004277914762497
1715439289799012600,5.9280126953125,0.028731346130371094,-0.0367734432220459,-0.06253139674663544
1715439289809018400,5.938018310546875,0.075347900390625,-0.017461299896240234,-0.015923649072647095
1715439289819024100,5.948024169921875,0.09743309020996094,-0.008690595626831055,0.03478977084159851
1715439289829030000,5.95802978515625,0.07651710510253906,-0.0057713985443115234,0.009345859289169312
1715439289839035600,5.96803564453125,0.008786201477050781,0.00612187385559082,0.025954395532608032
1715439289849041400,5.97804150390625,0.007990837097167969,0.007999658584594727,0.023851364850997925
1715439289859047200,5.988047119140625,-0.007052421569824219,0.014151573181152344,0.018148869276046753
1715439289869053000,5.998052978515625,-0.0501556396484375,-0.008253812789916992,-0.020144522190093994
1715439289879058700,6.00805859375,-0.08765125274658203,-0.010751485824584961,-0.01542249321937561
1715439289889064400,6.018064453125,-0.138275146484375,-0.021229982376098633,0.012212693691253662
1715439289899070500,6.028070556640625,-0.12656307220458984,-0.049280405044555664,0.029868215322494507
1715439289909076200,6.038076171875,-0.04897880554199219,-0.043303489685058594,0.014469414949417114
1715439289919082000,6.04808203125,0.02723407745361328,-0.009365320205688477,-0.013822287321090698
1715439289929087700,6.058087646484375,0.03135108947753906,-0.019054412841796875,-0.012663394212722778
1715439289939093500,6.068093505859375,0.01174163818359375,-0.010138511657714844,-0.011047303676605225
1715439289949099300,6.078099365234375,0.011219024658203125,-0.006270885467529297,-0.003873199224472046
1715439289959105000,6.08810498046875,0.07173442840576172,-0.02190542221069336,-0.019387483596801758
1715439289969110800,6.09811083984375,0.08398056030273438,-0.05681777000427246,-0.03947697579860687
1715439289979116500,6.108116455078125,0.020755767822265625,-0.07683467864990234,-0.008138567209243774
1715439289989122300,6.118122314453125,0.043608665466308594,-0.06257247924804688,-0.015618681907653809
1715439289999128000,6.128128173828125,0.05685710906982422,-0.04324507713317871,-0.047968387603759766
1715439290009133800,6.1381337890625,0.03702735900878906,-0.014619827270507812,-0.0533025860786438
1715439290019139800,6.148139892578125,0.03167438507080078,-0.010005950927734375,0.011457115411758423
1715439290029145600,6.1581455078125,0.03574943542480469,0.017776966094970703,0.051719874143600464
1715439290039151400,6.1681513671875,0.04439258575439453,0.0542140007019043,0.06295973062515259
1715439290049157000,6.1781572265625,0.05274391174316406,0.056574106216430664,0.0793447196483612
1715439290059163000,6.188162841796875,0.041853904724121094,0.029636144638061523,0.039402782917022705
1715439290069168600,6.198168701171875,0.007382392883300781,0.025886058807373047,0.024244636297225952
1715439290079174400,6.20817431640625,-0.00792694091796875,0.02609705924987793,0.02959921956062317
1715439290089180200,6.21818017578125,-0.009069442749023438,0.025597095489501953,-0.020387113094329834
1715439290099186200,6.228186279296875,-0.11387825012207031,0.034227848052978516,-0.049853742122650146
1715439290109192000,6.23819189453125,-0.1884937286376953,0.015282154083251953,-0.05002602934837341
1715439290119197700,6.24819775390625,-0.13461875915527344,0.006593465805053711,-0.06832903623580933
1715439290129203500,6.258203369140625,-0.08635520935058594,-0.011250734329223633,-0.047307297587394714
1715439290139209500,6.26820947265625,-0.194000244140625,-0.03258967399597168,-0.04712246358394623
1715439290149215200,6.27821533203125,-0.24736595153808594,-0.08861851692199707,-0.015182211995124817
1715439290159221000,6.288220947265625,-0.13442707061767578,-0.07067465782165527,0.03476020693778992
1715439290169227000,6.29822705078125,0.05218791961669922,-0.03339409828186035,0.0408189594745636
1715439290179232800,6.308232666015625,0.2023935317993164,-0.012171745300292969,0.11780619621276855
1715439290189238500,6.318238525390625,0.28360557556152344,-0.021680593490600586,0.14777395129203796
1715439290199244300,6.328244384765625,0.3157472610473633,-0.009916543960571289,0.12148979306221008
1715439290209250300,6.338250244140625,0.2573070526123047,-0.01009678840637207,0.08156958222389221
1715439290219256000,6.348256103515625,0.03487873077392578,-0.029933929443359375,0.07367411255836487
1715439290229261800,6.35826171875,-0.16460800170898438,-0.04334235191345215,0.07810787856578827
1715439290239267800,6.368267822265625,-0.26117515563964844,-0.03499412536621094,0.04322095215320587
1715439290249273600,6.378273681640625,-0.23772048950195312,-0.038197994232177734,-0.00603678822517395
1715439290259279400,6.388279296875,-0.1058950424194336,-0.011282920837402344,-0.026597261428833008
1715439290269285000,6.39828515625,0.07567882537841797,0.006376743316650391,-0.03258891403675079
1715439290279291100,6.408291015625,0.24918556213378906,0.013129234313964844,-0.03252100944519043
1715439290289297000,6.418296875,0.3389558792114258,-0.020897626876831055,-0.021184608340263367
1715439290299302700,6.428302734375,0.2569389343261719,-0.033818721771240234,-0.008808746933937073
1715439290309308700,6.43830859375,0.053603172302246094,-0.028792619705200195,-0.02055676281452179
1715439290319314400,6.448314453125,-0.13196849822998047,-0.04658961296081543,-0.029280424118041992
1715439290329320200,6.4583203125,-0.1961498260498047,-0.06188082695007324,0.00794859230518341
1715439290339326000,6.468325927734375,-0.04720497131347656,-0.06671261787414551,0.03619346022605896
1715439290349332000,6.47833203125,0.03333282470703125,-0.05263471603393555,-0.03005380928516388
1715439290359337700,6.488337646484375,0.03256416320800781,-0.019748926162719727,-0.08229941129684448
1715439290369343500,6.498343505859375,0.03656482696533203,-0.0014293193817138672,-0.035621240735054016
1715439290379349500,6.508349609375,0.012255668640136719,-0.011664152145385742,0.03354594111442566
1715439290389355300,6.518355224609375,-0.011738777160644531,-0.02684807777404785,0.04936520755290985
1715439290399361000,6.528361083984375,-0.05432891845703125,-0.009431123733520508,0.037070900201797485
1715439290409366800,6.53836669921875,-0.0774068832397461,0.012304067611694336,-0.00296919047832489
1715439290419372800,6.548372802734375,-0.0999002456665039,0.03919053077697754,-0.047125622630119324
1715439290429378600,6.558378662109375,-0.10289573669433594,0.03377652168273926,-0.02507689595222473
1715439290439384300,6.56838427734375,-0.11499309539794922,0.005911588668823242,0.0007122159004211426
1715439290449390300,6.578390380859375,-0.042022705078125,-0.00696253776550293,0.01154559850692749
1715439290459396000,6.58839599609375,0.06239604949951172,-0.011214971542358398,0.047370076179504395
1715439290469401900,6.59840185546875,0.09408378601074219,-0.021407604217529297,0.008662402629852295
1715439290479407600,6.60840771484375,0.14851093292236328,0.0005331039428710938,-0.04247415065765381
1715439290489413400,6.618413330078125,0.18749237060546875,-0.0076367855072021484,-0.015817537903785706
1715439290499419100,6.628419189453125,0.12175750732421875,-0.031603097915649414,0.03514230251312256
1715439290509425000,6.6384248046875,-0.027915000915527344,-0.0327298641204834,0.03859409689903259
1715439290519430700,6.6484306640625,-0.15137863159179688,-0.03323173522949219,0.04133567214012146
1715439290529436400,6.6584365234375,-0.1970357894897461,-0.008573532104492188,0.04826253652572632
1715439290539442400,6.6684423828125,-0.1661205291748047,-0.015485525131225586,0.05392056703567505
1715439290549448200,6.6784482421875,-0.11181068420410156,-0.011471033096313477,0.04435727000236511
1715439290559454000,6.688453857421875,-0.048828125,-0.002223491668701172,0.0531880259513855
1715439290569459700,6.698459716796875,-0.010358810424804688,0.0024466514587402344,0.04268929362297058
1715439290579465500,6.708465576171875,0.008704185485839844,0.016648530960083008,0.022072643041610718
1715439290589471200,6.71847119140625,0.07445621490478516,0.016078710556030273,0.005732834339141846
1715439290599477000,6.72847705078125,0.10120105743408203,-0.008927345275878906,0.02342754602432251
1715439290609482800,6.738482666015625,0.061458587646484375,-0.019786834716796875,-0.010015502572059631
1715439290619488500,6.748488525390625,0.022588729858398438,-0.024938583374023438,-0.0573810338973999
1715439290629494300,6.758494384765625,0.017580032348632812,-0.010243654251098633,-0.053145378828048706
1715439290639500000,6.7685,0.07854175567626953,-0.01942586898803711,-0.010912522673606873
1715439290649505800,6.778505859375,0.08626842498779297,-0.02534627914428711,0.008326232433319092
1715439290659511800,6.78851171875,0.027576446533203125,-0.004321575164794922,0.014121830463409424
1715439290669517600,6.798517578125,-0.06307125091552734,0.002321004867553711,0.033897608518600464
1715439290679523300,6.8085234375,-0.1471385955810547,0.005541563034057617,0.04785916209220886
1715439290689529000,6.818529052734375,-0.1774425506591797,-0.02204442024230957,0.04164999723434448
1715439290699534800,6.828534912109375,-0.10792255401611328,-0.009797334671020508,0.044159501791000366
1715439290709540600,6.83854052734375,0.06391334533691406,0.0018339157104492188,0.06596553325653076
1715439290719546400,6.84854638671875,0.17581844329833984,0.020577192306518555,-0.019133850932121277
1715439290729552100,6.85855224609375,0.1582489013671875,0.041819095611572266,-0.09282234311103821
1715439290739558000,6.868557861328125,0.051321983337402344,0.04307699203491211,-0.10429807007312775
1715439290749563600,6.878563720703125,-0.07729721069335938,-0.02611231803894043,-0.04563148319721222
1715439290759569400,6.8885693359375,-0.09057903289794922,-0.07451844215393066,-0.030092298984527588
1715439290769575200,6.8985751953125,-0.056342124938964844,-0.06942296028137207,-0.05691295862197876
1715439290779581200,6.908581298828125,0.03412055969238281,-0.020928621292114258,-0.10299961268901825
1715439290789587000,6.9185869140625,0.11377239227294922,0.012948274612426758,-0.0838565081357956
1715439290799592700,6.9285927734375,0.14487457275390625,-0.006128072738647461,0.005268082022666931
1715439290809598500,6.938598388671875,0.10904312133789062,0.001455545425415039,0.07996100187301636
1715439290819604200,6.948604248046875,-0.015966415405273438,0.0029959678649902344,0.08826711773872375
1715439290829610000,6.95860986328125,-0.09648990631103516,0.032865285873413086,0.049372971057891846
1715439290839615700,6.96861572265625,-0.09542274475097656,0.015954256057739258,0.03907713294029236
1715439290849621500,6.97862158203125,-0.0660104751586914,-0.014303445816040039,0.062265872955322266
1715439290859627300,6.988627197265625,0.014494895935058594,-0.0306394100189209,0.08662557601928711
1715439290869633000,6.998633056640625,0.041534423828125,-0.03840351104736328,0.051655739545822144
1715439290879638800,7.008638671875,-0.007353782653808594,-0.013693809509277344,0.017048045992851257
1715439290889644500,7.01864453125,-0.10226917266845703,-0.021450042724609375,-0.02257046103477478
1715439290899650600,7.028650634765625,-0.054106712341308594,-0.04690194129943848,0.028183668851852417
1715439290909656300,7.03865625,-0.0019283294677734375,-0.05269575119018555,0.03047966957092285
1715439290919662000,7.048662109375,0.02585601806640625,-0.03484988212585449,0.036743298172950745
1715439290929667800,7.058667724609375,0.03446197509765625,-0.026317119598388672,0.02787323296070099
1715439290939673600,7.068673583984375,0.043128013610839844,-0.02663588523864746,0.008376151323318481
1715439290949679400,7.078679443359375,0.1128835678100586,0.0013041496276855469,0.016575783491134644
1715439290959685000,7.08868505859375,0.14823150634765625,0.004130363464355469,0.011316418647766113
1715439290969691000,7.09869091796875,0.10261154174804688,-0.008525609970092773,0.011633187532424927
1715439290979696600,7.108696533203125,-0.01773548126220703,-0.007451295852661133,-0.03015492856502533
1715439290989702400,7.118702392578125,-0.11240482330322266,-0.015307426452636719,-0.04327242076396942
1715439290999708200,7.128708251953125,-0.19571208953857422,0.0020139217376708984,-0.014143407344818115
1715439291009714000,7.1387138671875,-0.18775463104248047,0.011332988739013672,-0.009291797876358032
1715439291019720000,7.148719970703125,-0.12310028076171875,0.031217575073242188,-0.03810793161392212
1715439291029725700,7.1587255859375,-0.045166015625,0.004595518112182617,-0.03872273862361908
1715439291039731500,7.1687314453125,0.01742267608642578,0.02580118179321289,-0.025526687502861023
1715439291049737200,7.1787373046875,0.16823196411132812,0.036435842514038086,-0.016933992505073547
1715439291059743000,7.188742919921875,0.1513814926147461,-0.015726804733276367,-0.012815743684768677
1715439291069748700,7.198748779296875,0.13935279846191406,-0.011124610900878906,-0.007910266518592834
1715439291079754500,7.20875439453125,0.15076732635498047,-0.02182769775390625,-0.06747549772262573
1715439291089760300,7.21876025390625,0.10527610778808594,-0.019119739532470703,-0.10248485207557678
1715439291099766000,7.22876611328125,0.03693389892578125,-0.03557872772216797,-0.10400732606649399
1715439291109771800,7.238771728515625,-0.04433155059814453,-0.03261590003967285,-0.07202214002609253
1715439291119777500,7.248777587890625,-0.10521602630615234,-0.03360438346862793,-0.04996345937252045
1715439291129783600,7.258783447265625,-0.11293506622314453,-0.014329671859741211,-0.06679847836494446
1715439291139789300,7.268789306640625,-0.06843280792236328,-0.0036857128143310547,-0.04716801643371582
1715439291149795000,7.278795166015625,-0.024627685546875,-0.00254058837890625,0.027686238288879395
1715439291159801000,7.288801025390625,0.013600349426269531,-0.011448383331298828,0.05857096612453461
1715439291169806800,7.298806884765625,0.046253204345703125,0.0024213790893554688,0.05177924036979675
1715439291179812600,7.3088125,0.050002098083496094,0.015648365020751953,0.03609009087085724
1715439291189818400,7.318818359375,0.034811973571777344,-0.004511117935180664,0.04395639896392822
1715439291199824400,7.328824462890625,0.01994037628173828,-0.019432544708251953,0.06033329665660858
1715439291209830100,7.338830078125,0.019357681274414062,-0.0345149040222168,0.047711655497550964
1715439291219836000,7.3488359375,-0.00022125244140625,-0.04053235054016113,0.003446131944656372
1715439291229842000,7.358842041015625,-0.05719757080078125,-0.02299976348876953,-0.043411314487457275
1715439291239847700,7.36884765625,-0.1270895004272461,0.004778623580932617,-0.0892438292503357
1715439291249853400,7.378853515625,-0.15767478942871094,0.0010612010955810547,-0.0690290778875351
1715439291259859200,7.388859130859375,-0.1402301788330078,0.0038366317749023438,-0.0030268579721450806
1715439291269865200,7.398865234375,-0.08051776885986328,0.002557039260864258,0.0896015465259552
1715439291279871000,7.40887109375,0.006327629089355469,0.0055904388427734375,0.09228473901748657
1715439291289876700,7.418876708984375,0.10561466217041016,0.04533052444458008,0.015608549118041992
1715439291299882800,7.4288828125,0.10891246795654297,0.050752878189086914,-0.02695825695991516
1715439291309888500,7.438888427734375,0.05556297302246094,0.022730588912963867,-0.02195890247821808
1715439291319894300,7.448894287109375,-0.0015954971313476562,-0.014236688613891602,0.0061464011669158936
1715439291329900000,7.458900146484375,-0.0012369155883789062,-0.02213287353515625,0.05213962495326996
1715439291339906000,7.468906005859375,0.05543327331542969,-0.01648736000061035,0.07440628111362457
1715439291349911800,7.478911865234375,0.10139846801757812,-0.03108358383178711,0.04093198478221893
1715439291359917600,7.48891748046875,0.10867595672607422,-0.0229036808013916,0.008469998836517334
1715439291369923600,7.498923583984375,0.0639801025390625,-0.015167236328125,-0.014684602618217468
1715439291379929300,7.508929443359375,0.020134925842285156,-0.0260927677154541,-0.010508418083190918
1715439291389935000,7.51893505859375,-0.022809982299804688,-0.007984161376953125,0.04436340928077698
1715439291399940900,7.52894091796875,-0.07431411743164062,-0.0038056373596191406,0.05038253962993622
1715439291409947000,7.53894677734375,-0.1575603485107422,-0.017232179641723633,0.01675167679786682
1715439291419952600,7.54895263671875,-0.0789794921875,-0.005584001541137695,0.006043881177902222
1715439291429958400,7.55895849609375,0.10166358947753906,0.0004572868347167969,0.030384451150894165
1715439291439964400,7.56896435546875,0.18934059143066406,0.01871800422668457,-0.014075741171836853
1715439291449970200,7.57897021484375,0.10097122192382812,0.011732339859008789,-0.05661757290363312
1715439291459976000,7.588975830078125,-0.009551048278808594,-0.009550809860229492,-0.05084224045276642
1715439291469981700,7.598981689453125,-0.15573406219482422,-0.020353078842163086,0.01148843765258789
1715439291479987700,7.60898779296875,-0.2472972869873047,-0.03407788276672363,0.04430365562438965
1715439291489993500,7.618993408203125,-0.21920013427734375,-0.031740427017211914,0.03850138187408447
1715439291499999200,7.628999267578125,-0.04070854187011719,-0.005101680755615234,0.05178326368331909
1715439291510005200,7.639005126953125,0.17685222625732422,0.04342532157897949,0.009899169206619263
1715439291520011000,7.649010986328125,0.21599197387695312,0.055871009826660156,-0.049240902066230774
1715439291530016800,7.659016845703125,0.09402847290039062,0.03364372253417969,-0.07441006600856781
1715439291540022500,7.6690224609375,-0.07298946380615234,-0.011854171752929688,-0.034018903970718384
1715439291550028300,7.6790283203125,-0.21798992156982422,-0.05508875846862793,-0.024084150791168213
1715439291560034000,7.689033935546875,-0.228057861328125,-0.0855705738067627,-0.006782606244087219
1715439291570039800,7.699039794921875,-0.044379234313964844,-0.042815208435058594,-0.0047695934772491455
1715439291580045600,7.709045654296875,0.2068614959716797,-0.005588054656982422,-0.0505262166261673
1715439291590051300,7.71905126953125,0.3357505798339844,0.019702672958374023,-0.04385533928871155
1715439291600057300,7.729057373046875,0.32524967193603516,0.0182192325592041,0.010515749454498291
1715439291610063000,7.73906298828125,0.16358375549316406,0.000016689300537109375,0.022985100746154785
1715439291620068900,7.74906884765625,-0.09450054168701172,-0.004559993743896484,0.032070308923721313
1715439291630074600,7.75907470703125,-0.2726097106933594,-0.026380300521850586,0.05608305335044861
1715439291640080400,7.769080322265625,-0.30586719512939453,-0.01697254180908203,0.05602771043777466
1715439291650086100,7.779086181640625,-0.25803565979003906,-0.024543285369873047,0.07452970743179321
1715439291660092000,7.789091796875,-0.14482784271240234,-0.03088974952697754,0.07424241304397583
1715439291670097700,7.79909765625,0.013563156127929688,-0.0041768550872802734,0.060388147830963135
1715439291680103400,7.809103515625,0.12669086456298828,0.025795459747314453,0.004588097333908081
1715439291690109200,7.819109130859375,0.11999988555908203,0.01189279556274414,-0.018076643347740173
1715439291700115000,7.829114990234375,0.05206108093261719,-0.021315574645996094,0.02956247329711914
1715439291710120700,7.83912060546875,-0.00060272216796875,-0.04455876350402832,0.052213817834854126
1715439291720126700,7.849126708984375,-0.009889602661132812,-0.024643898010253906,0.021716833114624023
1715439291730132500,7.859132568359375,0.023601531982421875,-0.022991657257080078,-0.00456768274307251
1715439291740138200,7.86913818359375,0.11310958862304688,-0.025874853134155273,-0.007674723863601685
1715439291750144000,7.87914404296875,0.1444549560546875,-0.0011556148529052734,-0.024808108806610107
1715439291760149800,7.889149658203125,0.1184530258178711,0.007828950881958008,-0.016936033964157104
1715439291770155500,7.899155517578125,0.0736541748046875,0.03409695625305176,-0.025971710681915283
1715439291780161300,7.909161376953125,-0.02707386016845703,0.016952037811279297,-0.04322062432765961
1715439291790167000,7.9191669921875,-0.09779834747314453,0.023937463760375977,-0.013096153736114502
1715439291800172800,7.9291728515625,-0.16708946228027344,0.02238297462463379,0.03947025537490845
1715439291810178600,7.939178466796875,-0.19248008728027344,-0.00600743293762207,0.056950777769088745
1715439291820184300,7.949184326171875,-0.13228511810302734,-0.008789539337158203,0.044964730739593506
1715439291830190000,7.959190185546875,-0.011597633361816406,0.02253270149230957,-0.0098494291305542
1715439291840196000,7.969196044921875,0.10713005065917969,0.0016407966613769531,-0.04579533636569977
1715439291850201900,7.979201904296875,0.1764812469482422,-0.029616117477416992,-0.033984482288360596
1715439291860207600,7.98920751953125,0.20172405242919922,-0.034200429916381836,-0.02469736337661743
1715439291870213400,7.99921337890625,0.1225881576538086,-0.03528785705566406,-0.08424073457717896
