time,seconds_elapsed,z,y,x
1715439330841693700,0.121693603515625,-0.5476284027099609,-0.2050304412841797,-0.03595587611198425
1715439330851623400,0.13162353515625,-0.5126605033874512,-0.17642688751220703,-0.16722671687602997
1715439330861588000,0.141587890625,-0.48593807220458984,-0.13874292373657227,-0.15503959357738495
1715439330871587000,0.151587158203125,-0.3901700973510742,-0.18896913528442383,-0.06426900625228882
1715439330881620200,0.1616201171875,-0.2986583709716797,-0.1800551414489746,-0.013054236769676208
1715439330891684400,0.171684326171875,-0.1773676872253418,-0.13035964965820312,-0.015287131071090698
1715439330901776400,0.1817763671875,-0.07010555267333984,-0.04790496826171875,0.02063852548599243
1715439330911891700,0.1918916015625,0.021785736083984375,0.015331268310546875,0.19458234310150146
1715439330922024700,0.202024658203125,0.1236271858215332,0.014513969421386719,0.3398247957229614
1715439330932170000,0.212169921875,0.1686840057373047,0.04240989685058594,0.4256035089492798
1715439330942321200,0.222321044921875,0.18365859985351562,0.09663772583007812,0.4683831036090851
1715439330952471800,0.232471923828125,0.1750049591064453,0.1165165901184082,0.44766300916671753
1715439330962477600,0.2424775390625,0.1665811538696289,0.10368967056274414,0.43510496616363525
1715439330972483600,0.252483642578125,0.18073034286499023,0.08751821517944336,0.3821861147880554
1715439330982489300,0.2624892578125,0.1562509536743164,0.07344532012939453,0.29480740427970886
1715439330992495000,0.2724951171875,0.09856843948364258,0.0666508674621582,0.20577898621559143
1715439331002500900,0.2825009765625,0.0492701530456543,0.054097652435302734,0.24932709336280823
1715439331012507000,0.2925068359375,0.011446952819824219,0.004965305328369141,0.30205389857292175
1715439331022512600,0.3025126953125,-0.03031635284423828,-0.036801815032958984,0.28170204162597656
1715439331032518400,0.312518310546875,-0.05830955505371094,-0.056783199310302734,0.23316873610019684
1715439331042524400,0.3225244140625,-0.05962038040161133,-0.11540746688842773,0.0730372816324234
1715439331052530200,0.3325302734375,-0.016511917114257812,-0.17926454544067383,-0.14156031608581543
1715439331062536000,0.342535888671875,0.01897144317626953,-0.23472976684570312,-0.32714152336120605
1715439331072541700,0.352541748046875,0.08478116989135742,-0.28280210494995117,-0.46272242069244385
1715439331082547700,0.362547607421875,0.1667771339416504,-0.3198733329772949,-0.6024042367935181
1715439331092553500,0.372553466796875,0.26534080505371094,-0.35651063919067383,-0.705358624458313
1715439331102559200,0.382559326171875,0.3064908981323242,-0.41228723526000977,-0.7765320539474487
1715439331112565200,0.392565185546875,0.30583953857421875,-0.4541444778442383,-0.8252766132354736
1715439331122571000,0.402571044921875,0.301724910736084,-0.45453786849975586,-0.8433524370193481
1715439331132576800,0.41257666015625,0.3084268569946289,-0.3961482048034668,-0.7375317811965942
1715439331142582500,0.42258251953125,0.3492417335510254,-0.27130985260009766,-0.546822190284729
1715439331152588500,0.432588623046875,0.4100675582885742,-0.17108917236328125,-0.3848631680011749
1715439331162594300,0.44259423828125,0.4255690574645996,-0.1374802589416504,-0.28494906425476074
1715439331172600000,0.45260009765625,0.4158344268798828,-0.15055227279663086,-0.2320031225681305
1715439331182606000,0.462606201171875,0.37192487716674805,-0.1622176170349121,-0.15388724207878113
1715439331192611800,0.47261181640625,0.29433441162109375,-0.16748952865600586,-0.09698823094367981
1715439331202617600,0.48261767578125,0.1316204071044922,-0.1235966682434082,0.08440247178077698
1715439331212623400,0.492623291015625,-0.3223142623901367,0.29842376708984375,0.9119239449501038
1715439331222629400,0.50262939453125,-0.6043124198913574,0.6248478889465332,1.4449236392974854
1715439331232635100,0.51263525390625,-0.4473419189453125,0.26378870010375977,0.743927538394928
1715439331242641000,0.522640869140625,-0.23036909103393555,-0.035338401794433594,-0.09616324305534363
1715439331252647000,0.53264697265625,-0.2593369483947754,0.03549766540527344,-0.1026214212179184
1715439331262652700,0.542652587890625,-0.26663732528686523,0.013850688934326172,-0.04616092890501022
1715439331272658400,0.552658447265625,-0.19118165969848633,-0.023933887481689453,-0.031150437891483307
1715439331282664200,0.562664306640625,-0.1652994155883789,0.0014123916625976562,0.02743665874004364
1715439331292670200,0.572670166015625,-0.10279512405395508,-0.03894519805908203,0.025784462690353394
1715439331302676000,0.582676025390625,0.01059865951538086,-0.05547380447387695,-0.012471906840801239
1715439331312682000,0.592681884765625,0.1183934211730957,-0.03546285629272461,-0.008157134056091309
1715439331322687700,0.602687744140625,0.19768047332763672,-0.02243185043334961,0.008988402783870697
1715439331332693800,0.61269384765625,0.22578811645507812,0.002177715301513672,0.00028298795223236084
1715439331342699500,0.622699462890625,0.18927860260009766,0.005473613739013672,0.0034171342849731445
1715439331352705500,0.63270556640625,0.13081073760986328,-0.011224746704101562,0.019586853682994843
1715439331362711300,0.642711181640625,0.10170936584472656,-0.01837444305419922,0.026105757802724838
1715439331372717300,0.65271728515625,0.09193134307861328,-0.011266708374023438,-0.005433805286884308
1715439331382723000,0.66272314453125,0.07303953170776367,0.00969696044921875,-0.05580238252878189
1715439331392729000,0.67272900390625,0.045262813568115234,-0.01229715347290039,-0.05778815597295761
1715439331402734800,0.68273486328125,-0.0005269050598144531,-0.048438072204589844,0.05496475100517273
1715439331412740900,0.692740966796875,-0.07882118225097656,-0.05531501770019531,0.17813213169574738
1715439331422746600,0.70274658203125,-0.0904088020324707,-0.05201148986816406,0.1648082137107849
1715439331432752600,0.712752685546875,-0.1066431999206543,-0.03917551040649414,0.06225374713540077
1715439331442758400,0.72275830078125,-0.15577173233032227,-0.04043388366699219,0.002412024885416031
1715439331452764400,0.732764404296875,-0.2284984588623047,-0.04063606262207031,0.0552826002240181
1715439331462770200,0.742770263671875,-0.2642855644226074,-0.06678962707519531,0.1405649036169052
1715439331472776200,0.752776123046875,-0.23098993301391602,-0.07114458084106445,0.15505322813987732
1715439331482782000,0.762781982421875,-0.1479959487915039,-0.05948686599731445,0.06650698184967041
1715439331492788000,0.7727880859375,-0.04337787628173828,-0.061518192291259766,-0.010731762275099754
1715439331502793700,0.782793701171875,0.03171253204345703,-0.054648399353027344,-0.03539515286684036
1715439331512799500,0.792799560546875,0.007676124572753906,-0.05849027633666992,0.011533135548233986
1715439331522805500,0.802805419921875,-0.010444164276123047,-0.07262897491455078,0.06838782131671906
1715439331532811300,0.812811279296875,-0.06539487838745117,-0.0777435302734375,0.026130590587854385
1715439331542817300,0.8228173828125,-0.14304161071777344,-0.06856632232666016,-0.0017611868679523468
1715439331552823000,0.832822998046875,-0.17789173126220703,-0.06322669982910156,0.007308748550713062
1715439331562829000,0.8428291015625,-0.061893463134765625,-0.09046316146850586,0.0053253332152962685
1715439331572834800,0.852834716796875,0.0009107589721679688,-0.11316537857055664,0.03530200570821762
1715439331582840800,0.8628408203125,-0.03129911422729492,-0.10747385025024414,0.10341453552246094
1715439331592846600,0.8728466796875,-0.006598472595214844,-0.11113691329956055,0.08800651133060455
1715439331602852600,0.8828525390625,-0.00571441650390625,-0.0678110122680664,0.03281474485993385
1715439331612858400,0.8928583984375,-0.1035165786743164,-0.025444507598876953,-0.014220381155610085
1715439331622864400,0.902864501953125,-0.22402191162109375,-0.006386280059814453,-0.02561422437429428
1715439331632870100,0.9128701171875,-0.3253459930419922,-0.01864767074584961,-0.01785086840391159
1715439331642876200,0.922876220703125,-0.41756677627563477,-0.08956289291381836,0.05477943643927574
1715439331652882000,0.9328818359375,-0.41184043884277344,-0.10930633544921875,0.031137242913246155
1715439331662888000,0.942887939453125,-0.3140983581542969,-0.06978559494018555,0.03981952369213104
1715439331672893700,0.952893798828125,-0.17242193222045898,-0.038530826568603516,0.04238521680235863
1715439331682899700,0.962899658203125,-0.07143068313598633,-0.02583456039428711,0.015302479267120361
1715439331692905500,0.972905517578125,-0.05700063705444336,-0.06496667861938477,0.048965055495500565
1715439331702911500,0.982911376953125,-0.028478145599365234,-0.17429208755493164,-0.013452280312776566
1715439331712917200,0.992917236328125,0.17021751403808594,-0.3914341926574707,-0.42143169045448303
1715439331722923300,1.00292333984375,0.2879347801208496,-0.26879167556762695,-0.2953048348426819
1715439331732929000,1.012928955078125,0.2980828285217285,-0.05254220962524414,0.12217536568641663
1715439331742935000,1.02293505859375,0.12658977508544922,0.12926721572875977,0.7049092054367065
1715439331752940800,1.03294091796875,-0.18340396881103516,0.1245884895324707,1.026773452758789
1715439331762946800,1.04294677734375,-0.32600975036621094,0.02895498275756836,0.5061194896697998
1715439331772952600,1.05295263671875,-0.26676273345947266,-0.08971452713012695,-0.16424959897994995
1715439331782958600,1.06295849609375,-0.16422653198242188,-0.1088113784790039,-0.2864629030227661
1715439331792964400,1.07296435546875,0.019210338592529297,-0.22382307052612305,-0.2691599428653717
1715439331802970400,1.082970458984375,0.16103410720825195,-0.3028073310852051,-0.17020832002162933
1715439331812976000,1.09297607421875,0.2768592834472656,-0.09776067733764648,-0.08049559593200684
1715439331822982100,1.102982177734375,0.42923450469970703,0.09353494644165039,0.12181341648101807
1715439331832988000,1.11298779296875,0.5002789497375488,0.18127918243408203,0.3299641013145447
1715439331842994000,1.122993896484375,0.4443821907043457,0.15761184692382812,0.3067920207977295
1715439331852999700,1.132999755859375,0.4047203063964844,0.1423335075378418,0.2497229278087616
1715439331863005700,1.143005615234375,0.5134968757629395,0.09211206436157227,0.2505353093147278
1715439331873011500,1.153011474609375,0.5384063720703125,0.025224685668945312,0.2335243821144104
1715439331883017500,1.163017578125,0.3863487243652344,0.04122114181518555,0.06703797727823257
1715439331893023200,1.173023193359375,0.2854495048522949,0.04559755325317383,-0.10632878541946411
1715439331903029200,1.183029296875,0.2059006690979004,0.020603179931640625,-0.17938752472400665
1715439331913035000,1.193034912109375,0.11858081817626953,0.033293724060058594,-0.13469937443733215
1715439331923041000,1.203041015625,0.004080295562744141,0.04626178741455078,-0.006852748803794384
1715439331933046800,1.213046875,-0.10928106307983398,0.059986114501953125,0.12316643446683884
1715439331943052800,1.223052734375,-0.14166736602783203,0.041735172271728516,0.17091915011405945
1715439331953058600,1.23305859375,-0.12274551391601562,0.0015377998352050781,0.15745151042938232
1715439331963064600,1.243064697265625,-0.09084606170654297,-0.032230377197265625,0.06948159635066986
1715439331973070300,1.2530703125,-0.05063343048095703,-0.041162967681884766,-0.017202075570821762
1715439331983076400,1.263076416015625,-0.02088451385498047,-0.03533124923706055,-0.08012837171554565
1715439331993082000,1.27308203125,0.03172731399536133,-0.06701850891113281,-0.0675109475851059
1715439332003088000,1.283087890625,0.13074159622192383,-0.09370946884155273,-0.016724172979593277
1715439332013094000,1.293093994140625,0.19571781158447266,-0.07359790802001953,0.011016733944416046
1715439332023099600,1.303099609375,0.19432973861694336,-0.21002912521362305,0.3282381296157837
1715439332033105700,1.313105712890625,0.18438386917114258,-0.33586883544921875,0.14180779457092285
1715439332043111400,1.323111328125,0.19050836563110352,0.20673847198486328,-0.43570831418037415
1715439332053117400,1.333117431640625,-0.010013580322265625,0.4052138328552246,-0.3993256688117981
1715439332063123200,1.343123291015625,-0.024513721466064453,0.03658771514892578,-0.18386295437812805
1715439332073129200,1.353129150390625,0.040637969970703125,-0.13202619552612305,0.02042463794350624
1715439332083135000,1.363135009765625,0.08141756057739258,-0.11452102661132812,0.20737409591674805
1715439332093141000,1.37314111328125,0.1174473762512207,-0.04162406921386719,0.10101719945669174
1715439332103146800,1.383146728515625,0.15338659286499023,0.05765724182128906,-0.10711169242858887
1715439332113152800,1.39315283203125,0.2364482879638672,0.06029939651489258,-0.13810883462429047
1715439332123158500,1.403158447265625,0.30037498474121094,0.023843765258789062,-0.12301918119192123
1715439332133164500,1.41316455078125,0.2564716339111328,0.01429128646850586,-0.10516239702701569
1715439332143170300,1.42317041015625,0.20516252517700195,-0.020275115966796875,0.005712289363145828
1715439332153176300,1.43317626953125,0.20766115188598633,-0.0839834213256836,0.07239913195371628
1715439332163182000,1.44318212890625,0.28693532943725586,-0.05433034896850586,0.10547099262475967
1715439332173188000,1.45318798828125,0.3998432159423828,0.005263805389404297,0.2203751802444458
1715439332183193900,1.46319384765625,0.47082090377807617,-0.009693622589111328,0.14727863669395447
1715439332193199900,1.473199951171875,0.4255695343017578,-0.0653996467590332,0.10021451115608215
1715439332203205600,1.48320556640625,0.2704339027404785,-0.07129049301147461,0.11125493049621582
1715439332213211600,1.493211669921875,0.001201629638671875,-0.06884956359863281,0.060650259256362915
1715439332223217400,1.503217529296875,-0.22671985626220703,-0.0793919563293457,-0.07058118283748627
1715439332233223400,1.513223388671875,-0.41997623443603516,-0.06820154190063477,-0.17429812252521515
1715439332243229200,1.523229248046875,-0.49068403244018555,-0.04857158660888672,-0.15633070468902588
1715439332253235200,1.533235107421875,-0.38420963287353516,-0.07741117477416992,-0.06880590319633484
1715439332263241000,1.543240966796875,-0.22483158111572266,-0.09879779815673828,-0.024152230471372604
1715439332273247000,1.5532470703125,-0.1159815788269043,-0.08589649200439453,-0.06785287708044052
1715439332283252700,1.563252685546875,-0.0140533447265625,-0.03034496307373047,0.0239398293197155
1715439332293258800,1.5732587890625,0.07224369049072266,-0.018331527709960938,-0.014549273997545242
1715439332303264500,1.583264404296875,0.12493705749511719,-0.02630472183227539,0.005849150940775871
1715439332313270500,1.5932705078125,0.12595844268798828,-0.06358528137207031,-0.03053937293589115
1715439332323276300,1.6032763671875,0.061914920806884766,-0.07301712036132812,-0.015531867742538452
1715439332333282300,1.6132822265625,-0.0668344497680664,-0.07301998138427734,0.03523978590965271
1715439332343288000,1.6232880859375,-0.12829971313476562,-0.09088754653930664,0.027130134403705597
1715439332353294000,1.633294189453125,-0.19940853118896484,-0.09751749038696289,-0.015240360982716084
1715439332363299800,1.6432998046875,-0.20990705490112305,-0.11130142211914062,-0.05310140922665596
1715439332373305900,1.653305908203125,-0.1844196319580078,-0.1414632797241211,-0.07172851264476776
1715439332383311600,1.6633115234375,-0.15179967880249023,-0.09827232360839844,-0.12788419425487518
1715439332393317600,1.673317626953125,-0.09770917892456055,-0.021018028259277344,-0.18724672496318817
1715439332403323400,1.683323486328125,0.048854827880859375,0.02764892578125,-0.19241546094417572
1715439332413329400,1.693329345703125,0.16989803314208984,0.027866363525390625,-0.19627226889133453
1715439332423335200,1.703335205078125,0.2665128707885742,0.026736736297607422,-0.09489097446203232
1715439332433341200,1.713341064453125,0.292421817779541,0.02380514144897461,-0.036240678280591965
1715439332443347000,1.723346923828125,0.30046796798706055,0.009844303131103516,0.01807614043354988
1715439332453353000,1.73335302734375,0.26713991165161133,0.013606548309326172,0.0012070536613464355
1715439332463358700,1.743358642578125,0.22568845748901367,0.03527069091796875,-0.025311972945928574
1715439332473364700,1.75336474609375,0.2468090057373047,0.03694868087768555,-0.005651421844959259
1715439332483370500,1.76337060546875,0.3063821792602539,0.04667091369628906,0.059393927454948425
1715439332493376500,1.77337646484375,0.3053584098815918,0.030790328979492188,0.051395583897829056
1715439332503382300,1.78338232421875,0.22107839584350586,-0.010107040405273438,-0.009861063212156296
1715439332513388000,1.793387939453125,0.13445329666137695,-0.013752460479736328,-0.004652943462133408
1715439332523394000,1.80339404296875,0.10170364379882812,-0.046282291412353516,0.05807100236415863
1715439332533399800,1.81339990234375,0.09361553192138672,-0.07887792587280273,0.0646132156252861
1715439332543405800,1.82340576171875,-0.01762533187866211,-0.10651206970214844,0.03429262712597847
1715439332553411600,1.83341162109375,-0.18900632858276367,-0.12800884246826172,0.02828037738800049
1715439332563417600,1.84341748046875,-0.2978534698486328,-0.13789653778076172,0.0698469951748848
1715439332573423400,1.85342333984375,-0.34556055068969727,-0.11244058609008789,0.07311873883008957
1715439332583429400,1.863429443359375,-0.38543033599853516,-0.08465766906738281,-0.03749098628759384
1715439332593435100,1.87343505859375,-0.29019784927368164,-0.06903648376464844,-0.029732108116149902
1715439332603441200,1.883441162109375,-0.17888355255126953,-0.09001588821411133,-0.02809712290763855
1715439332613447000,1.893447021484375,-0.12177562713623047,-0.07235193252563477,0.005234532058238983
1715439332623453000,1.903452880859375,-0.06112527847290039,-0.0547480583190918,0.003971204161643982
1715439332633458700,1.913458740234375,-0.01574850082397461,-0.07024383544921875,0.01178743690252304
1715439332643464700,1.923464599609375,0.0337224006652832,-0.0432591438293457,0.04348418116569519
1715439332653470500,1.933470458984375,0.07820796966552734,-0.04088783264160156,0.0231507308781147
1715439332663476500,1.9434765625,0.07541322708129883,-0.03917741775512695,-0.02030813694000244
1715439332673482200,1.953482177734375,-0.007035732269287109,-0.03317594528198242,-0.029916368424892426
1715439332683488300,1.96348828125,-0.07412004470825195,-0.017702102661132812,-0.03022826462984085
1715439332693494000,1.973493896484375,-0.13599634170532227,-0.04416322708129883,-0.012456923723220825
1715439332703500000,1.9835,-0.13638591766357422,-0.04578542709350586,0.02786441519856453
1715439332713505800,1.993505859375,-0.06675338745117188,-0.037261962890625,0.12422353029251099
1715439332723511800,2.00351171875,0.029844284057617188,-0.04284524917602539,0.12165170907974243
1715439332733517600,2.013517578125,0.08751249313354492,-0.02517557144165039,-0.03022082895040512
1715439332743523600,2.023523681640625,0.10245895385742188,0.005624294281005859,-0.15156489610671997
1715439332753529300,2.033529296875,0.13217401504516602,-0.0027666091918945312,-0.04948580265045166
1715439332763535400,2.043535400390625,0.11056137084960938,-0.04976654052734375,-0.08508175611495972
1715439332773541000,2.053541015625,0.051989078521728516,-0.07282304763793945,-0.05820120871067047
1715439332783547100,2.063547119140625,-0.010514259338378906,-0.07642412185668945,-0.07839782536029816
1715439332793553000,2.073552978515625,-0.07750988006591797,-0.0507807731628418,-0.09865284711122513
1715439332803559000,2.083558837890625,-0.13029909133911133,-0.047944068908691406,-0.15708021819591522
1715439332813564700,2.093564697265625,-0.15990924835205078,-0.034348487854003906,-0.1968916952610016
1715439332823570700,2.10357080078125,-0.16699743270874023,-0.03340864181518555,-0.11442191153764725
1715439332833576400,2.113576416015625,-0.15178918838500977,-0.01681804656982422,-0.06608852744102478
1715439332843582500,2.12358251953125,-0.12420845031738281,-0.022351741790771484,-0.004168607294559479
1715439332853588200,2.133588134765625,-0.046174049377441406,-0.007954597473144531,0.06660817563533783
1715439332863594200,2.14359423828125,0.08223342895507812,-0.026599407196044922,0.09490062296390533
1715439332873600000,2.15360009765625,0.2279672622680664,-0.03149747848510742,0.0957578644156456
1715439332883606000,2.16360595703125,0.3020796775817871,-0.028514385223388672,0.0498572401702404
1715439332893611800,2.17361181640625,0.3061647415161133,-0.018254756927490234,-0.01480013132095337
1715439332903617800,2.18361767578125,0.29782533645629883,-0.019599437713623047,-0.0036528408527374268
1715439332913623600,2.19362353515625,0.28655004501342773,-0.018077850341796875,-0.01691349595785141
1715439332923629600,2.203629638671875,0.21076631546020508,-0.022693634033203125,-0.021566279232501984
1715439332933635300,2.21363525390625,0.07087278366088867,0.0098114013671875,0.010952986776828766
1715439332943641300,2.223641357421875,-0.03413677215576172,-0.014264583587646484,0.0425795279443264
1715439332953647000,2.233647216796875,-0.1006765365600586,-0.03214406967163086,0.026921555399894714
1715439332963653000,2.243653076171875,-0.15355443954467773,-0.03852987289428711,0.020831644535064697
1715439332973659000,2.253658935546875,-0.14597368240356445,-0.0759129524230957,0.04380928725004196
1715439332983665000,2.263664794921875,-0.11176013946533203,-0.059172630310058594,0.11964234709739685
1715439332993670700,2.273670654296875,-0.05108356475830078,-0.07898330688476562,0.0685143694281578
1715439333003676400,2.283676513671875,0.07902336120605469,-0.06526517868041992,0.10464322566986084
1715439333013682400,2.293682373046875,0.17940568923950195,-0.08550024032592773,0.014129139482975006
1715439333023688200,2.303688232421875,0.1849679946899414,-0.08301687240600586,-0.023457735776901245
1715439333033694200,2.313694091796875,0.1819767951965332,-0.05811786651611328,-0.02319437265396118
1715439333043700000,2.323699951171875,0.14210939407348633,-0.043909549713134766,-0.03817714750766754
1715439333053706000,2.3337060546875,0.08910655975341797,-0.020913124084472656,-0.02594897896051407
1715439333063711700,2.343711669921875,0.023041248321533203,-0.022077560424804688,-0.07690193504095078
1715439333073717800,2.3537177734375,-0.0798940658569336,-0.013507843017578125,-0.12484245002269745
1715439333083723500,2.3637236328125,-0.12987661361694336,-0.009180068969726562,-0.022544406354427338
1715439333093729500,2.3737294921875,-0.09433174133300781,-0.0189666748046875,0.08820512145757675
1715439333103735300,2.3837353515625,-0.08276510238647461,-0.04287147521972656,-0.037071794271469116
1715439333113741300,2.3937412109375,-0.13306665420532227,-0.05642557144165039,-0.01376592367887497
1715439333123747000,2.4037470703125,-0.1692814826965332,-0.04991483688354492,0.03333231061697006
1715439333133753000,2.413753173828125,-0.09276485443115234,-0.0707545280456543,0.08996497094631195
1715439333143758800,2.4237587890625,0.005752086639404297,-0.07209444046020508,0.06639653444290161
1715439333153764900,2.433764892578125,0.07464885711669922,-0.07842159271240234,0.0342056006193161
1715439333163770600,2.4437705078125,0.057854652404785156,-0.06132936477661133,0.05023062229156494
1715439333173776600,2.453776611328125,0.04161787033081055,-0.05423927307128906,0.06676802784204483
1715439333183782400,2.463782470703125,-0.054322242736816406,-0.037924766540527344,0.0032758936285972595
1715439333193788400,2.473788330078125,-0.1538534164428711,-0.030757904052734375,-0.07373958826065063
1715439333203794200,2.483794189453125,-0.2527594566345215,-0.00843191146850586,-0.1366664469242096
1715439333213800200,2.49380029296875,-0.29515933990478516,-0.027010440826416016,-0.15298300981521606
1715439333223806000,2.503805908203125,-0.2588472366333008,-0.0335540771484375,-0.11364041268825531
1715439333233812000,2.51381201171875,-0.17751741409301758,-0.04770708084106445,-0.041147470474243164
1715439333243817700,2.523817626953125,-0.14090204238891602,-0.03220939636230469,-0.04421451687812805
1715439333253823700,2.53382373046875,-0.14818191528320312,-0.03000783920288086,-0.027473479509353638
1715439333263829500,2.54382958984375,-0.12273979187011719,-0.0556187629699707,-0.019017964601516724
1715439333273835500,2.55383544921875,-0.1167140007019043,-0.014635562896728516,-0.05184251070022583
1715439333283841300,2.56384130859375,-0.17694473266601562,0.01656818389892578,-0.09320038557052612
1715439333293847300,2.573847412109375,-0.2702469825744629,-0.012634754180908203,-0.129615917801857
1715439333303853000,2.58385302734375,-0.26004552841186523,-0.05823659896850586,-0.034092336893081665
1715439333313859000,2.593859130859375,-0.2277054786682129,-0.11099100112915039,0.05969318747520447
1715439333323864800,2.60386474609375,-0.24427509307861328,-0.14713573455810547,0.05830170959234238
1715439333333870800,2.613870849609375,-0.21967458724975586,-0.11961698532104492,0.05692920833826065
1715439333343876600,2.623876708984375,-0.22968339920043945,-0.07217025756835938,-0.035187214612960815
1715439333353882600,2.633882568359375,-0.21708917617797852,0.0088348388671875,-0.19399233162403107
1715439333363888400,2.643888427734375,-0.09722232818603516,0.05189180374145508,-0.2577407956123352
1715439333373894400,2.653894287109375,0.02055835723876953,0.08032083511352539,-0.20904390513896942
1715439333383900200,2.663900146484375,0.10398244857788086,0.0841684341430664,-0.12468697130680084
1715439333393906200,2.67390625,0.16807937622070312,0.049329280853271484,-0.013887450098991394
1715439333403912000,2.683911865234375,0.17551612854003906,-0.004719734191894531,0.07682790607213974
1715439333413918000,2.69391796875,0.22095680236816406,-0.06297731399536133,0.18103978037834167
1715439333423923700,2.703923828125,0.2711806297302246,-0.11643075942993164,0.19947881996631622
1715439333433929700,2.7139296875,0.2225050926208496,-0.15104913711547852,0.12349078804254532
1715439333443935500,2.723935546875,0.14679670333862305,-0.1242976188659668,0.10876798629760742
1715439333453941500,2.73394140625,0.09598159790039062,-0.10743474960327148,0.07881315797567368
1715439333463947300,2.743947265625,0.060256004333496094,-0.07205057144165039,-0.01659242808818817
1715439333473953300,2.753953369140625,0.05314493179321289,-0.0321040153503418,-0.04788334667682648
1715439333483959000,2.763958984375,0.13082265853881836,-0.053746700286865234,0.08895883709192276
1715439333493964800,2.77396484375,0.1695246696472168,-0.09835100173950195,0.2837105393409729
1715439333503970800,2.783970703125,0.18376588821411133,-0.15106773376464844,0.3937597870826721
1715439333513976600,2.7939765625,0.13609075546264648,-0.12204694747924805,0.38665980100631714
1715439333523982600,2.803982666015625,0.02232503890991211,-0.09203672409057617,0.37666964530944824
1715439333533988400,2.81398828125,0.017524242401123047,-0.0842585563659668,0.3197869658470154
1715439333543994400,2.823994384765625,0.05889129638671875,-0.09395837783813477,0.21490466594696045
1715439333554000100,2.834000244140625,0.1649312973022461,-0.055498600006103516,0.1378975659608841
1715439333564006100,2.844006103515625,0.28810739517211914,-0.0034685134887695312,0.08424702286720276
1715439333574012000,2.854011962890625,0.45259857177734375,-0.0005464553833007812,0.0735103040933609
1715439333584018000,2.864017822265625,0.5503296852111816,-0.05187559127807617,0.07329960912466049
1715439333594023700,2.874023681640625,0.5686206817626953,-0.058190345764160156,0.04081469774246216
1715439333604029700,2.88402978515625,0.4759359359741211,-0.08636140823364258,-0.028156474232673645
1715439333614035500,2.894035400390625,0.2926311492919922,-0.07912158966064453,-0.06287553906440735
1715439333624041500,2.90404150390625,0.13234806060791016,-0.06416177749633789,-0.09834861755371094
1715439333634047200,2.914047119140625,0.007746696472167969,-0.04010725021362305,-0.10682705044746399
1715439333644053200,2.92405322265625,0.09210777282714844,-0.03485727310180664,-0.06927472352981567
1715439333654059000,2.93405908203125,0.23192977905273438,-0.05842924118041992,-0.04223725199699402
1715439333664065000,2.94406494140625,0.2571878433227539,-0.021479129791259766,-0.04440838098526001
1715439333674070800,2.95407080078125,0.27324581146240234,-0.04256153106689453,-0.028666362166404724
1715439333684076800,2.964076904296875,0.2947206497192383,-0.0600128173828125,-0.009719491004943848
1715439333694082600,2.97408251953125,0.3313179016113281,-0.05085945129394531,-0.042612478137016296
1715439333704088600,2.984088623046875,0.27933597564697266,-0.025146484375,-0.07372117042541504
1715439333714094300,2.99409423828125,0.21989059448242188,-0.010809898376464844,-0.08882968127727509
1715439333724100400,3.004100341796875,0.12427234649658203,0.01202249526977539,-0.05532826483249664
1715439333734106000,3.014106201171875,0.07252883911132812,-0.021854400634765625,-0.007610738277435303
1715439333744112000,3.024112060546875,0.02153778076171875,-0.012613296508789062,0.025292813777923584
1715439333754118000,3.034117919921875,-0.028946876525878906,-0.017151355743408203,-0.027491286396980286
1715439333764124000,3.0441240234375,0.015170097351074219,-0.058693885803222656,-0.042396172881126404
1715439333774129700,3.054129638671875,0.06343746185302734,-0.05272722244262695,-0.04804790019989014
1715439333784135700,3.0641357421875,0.06394767761230469,-0.018792152404785156,-0.08175325393676758
1715439333794141400,3.074141357421875,0.05505180358886719,0.009854316711425781,-0.1431005597114563
1715439333804147500,3.0841474609375,0.08410358428955078,0.01428985595703125,-0.18468502163887024
1715439333814153200,3.0941533203125,0.08455753326416016,0.03729248046875,-0.22076007723808289
1715439333824159200,3.1041591796875,0.061511993408203125,0.040963172912597656,-0.25718581676483154
1715439333834165000,3.1141650390625,0.06227302551269531,0.04470539093017578,-0.28941982984542847
1715439333844171000,3.1241708984375,0.10056209564208984,0.04851055145263672,-0.2942754924297333
1715439333854176800,3.1341767578125,0.17603397369384766,0.04723358154296875,-0.29598119854927063
1715439333864182800,3.144182861328125,0.2461252212524414,0.012103557586669922,-0.28430965542793274
1715439333874188500,3.1541884765625,0.3069324493408203,-0.010254383087158203,-0.22080770134925842
1715439333884194600,3.164194580078125,0.2459697723388672,-0.006430149078369141,-0.11009767651557922
1715439333894200300,3.174200439453125,0.13072490692138672,0.00030803680419921875,-0.08457738161087036
1715439333904206300,3.184206298828125,0.03222370147705078,-0.01294088363647461,-0.11116358637809753
1715439333914212000,3.194212158203125,-0.041108131408691406,0.002273082733154297,-0.14270880818367004
1715439333924218000,3.204218017578125,-0.038249969482421875,0.008315563201904297,-0.12297287583351135
1715439333934224000,3.214223876953125,-0.035958290100097656,-0.018033504486083984,-0.08677676320075989
1715439333944230000,3.22422998046875,-0.010481834411621094,-0.04353141784667969,-0.05245178937911987
1715439333954235600,3.234235595703125,0.03806495666503906,-0.06852054595947266,-0.00913935899734497
1715439333964241700,3.24424169921875,0.053363800048828125,-0.05139970779418945,0.006894588470458984
1715439333974247400,3.254247314453125,-0.0018224716186523438,-0.020862102508544922,-0.0022867918014526367
1715439333984253400,3.26425341796875,-0.055988311767578125,-0.019085407257080078,-0.1121496856212616
1715439333994259500,3.274259521484375,-0.1379709243774414,-0.01659393310546875,-0.1582021415233612
1715439334004265200,3.28426513671875,-0.18199920654296875,-0.017242431640625,-0.12359228730201721
1715439334014271200,3.294271240234375,-0.1322498321533203,-0.0021467208862304688,-0.10033127665519714
1715439334024277200,3.30427734375,-0.060599327087402344,0.018499374389648438,-0.06074953079223633
1715439334034283000,3.314282958984375,-0.07086372375488281,0.0019707679748535156,0.04110872745513916
1715439334044289000,3.3242890625,-0.053249359130859375,-0.01830911636352539,0.12947285175323486
1715439334054295000,3.334294921875,-0.04053211212158203,-0.029078006744384766,0.1815720498561859
1715439334064300800,3.34430078125,-0.046257972717285156,0.00649261474609375,0.260283887386322
1715439334074306800,3.354306884765625,-0.07944107055664062,0.026342391967773438,0.324077844619751
1715439334084312800,3.364312744140625,-0.12120342254638672,0.021926403045654297,0.3589039742946625
1715439334094318800,3.37431884765625,-0.1955280303955078,-0.010211467742919922,0.35063067078590393
1715439334104324600,3.38432470703125,-0.25548362731933594,-0.03561973571777344,0.3561650514602661
1715439334114330600,3.39433056640625,-0.27799129486083984,-0.05877351760864258,0.41780000925064087
1715439334124336600,3.404336669921875,-0.2354564666748047,-0.08902883529663086,0.5073835849761963
1715439334134342400,3.41434228515625,-0.1850595474243164,-0.10330867767333984,0.5449770092964172
1715439334144348400,3.424348388671875,-0.11263275146484375,-0.07388162612915039,0.6069806814193726
1715439334154354400,3.4343544921875,0.014993667602539062,-0.08708000183105469,0.7313083410263062
1715439334164360200,3.444360107421875,0.11284255981445312,-0.09142541885375977,0.8381271362304688
1715439334174366200,3.4543662109375,0.13942718505859375,-0.087677001953125,0.8384581208229065
1715439334184372200,3.464372314453125,0.06737899780273438,-0.06613731384277344,0.817620038986206
1715439334194378000,3.4743779296875,-0.036324501037597656,-0.002708911895751953,0.8830242156982422
1715439334204384000,3.484384033203125,-0.12939453125,0.06048297882080078,1.0715000629425049
1715439334214390000,3.49439013671875,-0.21251487731933594,0.128936767578125,1.3865222930908203
1715439334224396000,3.50439599609375,-0.22502708435058594,0.18434524536132812,1.7710330486297607
1715439334234401800,3.51440185546875,-0.21063613891601562,0.2319035530090332,2.174253225326538
1715439334244407800,3.52440771484375,-0.15305233001708984,0.38529491424560547,2.592308521270752
1715439334254413800,3.534413818359375,-0.011127471923828125,0.26851892471313477,2.733947515487671
1715439334264419600,3.544419677734375,0.042816162109375,0.17387628555297852,3.274796724319458
1715439334274425600,3.554425537109375,0.09919071197509766,0.08299446105957031,3.594482421875
1715439334284431600,3.564431640625,0.08740043640136719,-0.09650135040283203,4.031562328338623
1715439334294437400,3.574437255859375,0.2987251281738281,-0.41174793243408203,4.144125461578369
1715439334304443100,3.584443115234375,0.44738101959228516,-0.7640538215637207,4.090003490447998
1715439334314449200,3.59444921875,0.8882923126220703,-0.9501023292541504,4.6185197830200195
1715439334324455000,3.604454833984375,1.5558347702026367,-1.5801186561584473,4.347737789154053
1715439334334461000,3.6144609375,2.070509910583496,-2.213763952255249,3.775897741317749
1715439334344466700,3.624466796875,2.444324493408203,-2.591445207595825,3.444010019302368
1715439334354472700,3.63447265625,2.539046287536621,-3.0520496368408203,3.0464930534362793
1715439334364478500,3.644478515625,2.2209110260009766,-3.382457733154297,2.3202903270721436
1715439334374484500,3.654484375,1.7890748977661133,-3.4003753662109375,1.493321418762207
1715439334384490200,3.664490234375,1.2158775329589844,-3.161252737045288,0.7870653867721558
1715439334394496300,3.674496337890625,0.8374118804931641,-3.1327548027038574,0.31403234601020813
1715439334404502000,3.684501953125,0.6130342483520508,-3.3497672080993652,-0.18654733896255493
1715439334414508000,3.694508056640625,0.3065309524536133,-3.384843349456787,-0.8795552253723145
1715439334424513800,3.704513671875,0.22184181213378906,-3.26607608795166,-1.7869011163711548
1715439334434519800,3.714519775390625,0.4161520004272461,-3.1501305103302,-2.2329583168029785
1715439334444525600,3.724525634765625,0.34694671630859375,-3.0273568630218506,-1.9873749017715454
1715439334454531600,3.734531494140625,0.2679319381713867,-3.088867664337158,-1.6471108198165894
1715439334464537300,3.744537353515625,-0.12733936309814453,-3.0309557914733887,-1.8288804292678833
1715439334474543400,3.75454345703125,-0.5287590026855469,-2.6877365112304688,-2.406679630279541
1715439334484549000,3.764549072265625,-0.5334081649780273,-2.6484553813934326,-2.6213059425354004
1715439334494555100,3.77455517578125,-0.46897125244140625,-2.3560075759887695,-2.364070415496826
1715439334504561000,3.784560791015625,-0.4145679473876953,-1.7259774208068848,-2.4336564540863037
1715439334514567000,3.79456689453125,-0.5430240631103516,-2.3344295024871826,-2.6272592544555664
1715439334524572700,3.80457275390625,-0.5808801651000977,-2.7804245948791504,-1.841263771057129
1715439334534578700,3.81457861328125,-0.043616294860839844,-1.968621015548706,-1.7541556358337402
1715439334544584400,3.82458447265625,1.5527973175048828,-1.7625632286071777,-1.7580254077911377
1715439334554590500,3.834590576171875,1.4621076583862305,-1.9886335134506226,-1.5364840030670166
1715439334564596200,3.84459619140625,0.8054628372192383,-1.6057618856430054,-1.805673360824585
1715439334574602200,3.854602294921875,1.1052398681640625,-0.34859204292297363,-3.206676959991455
1715439334584608000,3.86460791015625,1.9585514068603516,0.532477855682373,-4.396755695343018
1715439334594614000,3.874614013671875,2.343647003173828,0.4934537410736084,-3.7071831226348877
1715439334604619800,3.884619873046875,1.672135353088379,0.11241292953491211,-2.9583024978637695
1715439334614625800,3.894625732421875,0.8732547760009766,0.08356523513793945,-2.663662910461426
1715439334624631600,3.904631591796875,0.9119482040405273,0.16496706008911133,-2.2781200408935547
1715439334634637600,3.914637451171875,1.1170272827148438,0.13785767555236816,-1.6168346405029297
1715439334644643300,3.924643310546875,0.975398063659668,0.038953542709350586,-1.1292166709899902
1715439334654649300,3.9346494140625,0.8738975524902344,-0.05211663246154785,-0.6297237873077393
1715439334664655000,3.944655029296875,1.0147905349731445,-0.21162796020507812,-0.1483834981918335
1715439334674661000,3.9546611328125,1.075617790222168,-0.33556270599365234,0.2849379777908325
1715439334684667000,3.9646669921875,0.6307573318481445,-0.28531980514526367,0.1624075174331665
1715439334694673000,3.9746728515625,-0.1347646713256836,-0.26093554496765137,0.02089369297027588
1715439334704678700,3.9846787109375,-0.9842710494995117,-0.4157097339630127,0.024516820907592773
1715439334714684700,3.9946845703125,-1.5754318237304688,-0.5976002216339111,-0.19348251819610596
1715439334724690400,4.0046904296875,-1.7904376983642578,-0.7868514060974121,-0.30629396438598633
1715439334734696400,4.014696533203125,-1.6688404083251953,-0.9907050132751465,-0.4384279251098633
1715439334744702200,4.0247021484375,-1.1918764114379883,-1.044040560722351,-0.8394298553466797
1715439334754708200,4.034708251953125,-0.5872383117675781,-0.9866353273391724,-1.1120233535766602
1715439334764714000,4.0447138671875,-0.13036632537841797,-0.8715158700942993,-1.11857008934021
1715439334774720000,4.054719970703125,0.19907188415527344,-0.554145097732544,-1.3123788833618164
1715439334784725800,4.064725830078125,0.5394668579101562,-0.4680105447769165,-1.0679107904434204
1715439334794731500,4.0747314453125,0.5032863616943359,-0.513727068901062,-0.6676352024078369
1715439334804737500,4.084737548828125,0.26807403564453125,-0.42773497104644775,-0.5125761032104492
1715439334814743300,4.094743408203125,0.1312427520751953,-0.29243969917297363,-0.6171245574951172
1715439334824749300,4.104749267578125,-0.06537818908691406,0.05510902404785156,-1.0766123533248901
1715439334834755000,4.114755126953125,-0.4475870132446289,0.035436391830444336,-0.7161397933959961
1715439334844761000,4.124760986328125,-0.7536029815673828,-0.04453933238983154,-0.5865551233291626
1715439334854766800,4.134766845703125,-0.7309675216674805,0.0037598609924316406,-0.6022560596466064
1715439334864772900,4.14477294921875,-0.504547119140625,0.008017539978027344,-0.37083005905151367
1715439334874778600,4.154778564453125,-0.3561220169067383,-0.08539092540740967,-0.0728614330291748
1715439334884784600,4.16478466796875,-0.1705465316772461,-0.27195513248443604,0.21605277061462402
1715439334894790400,4.174790283203125,0.2344379425048828,-0.45339876413345337,0.4890787601470947
1715439334904796400,4.18479638671875,0.6208086013793945,-0.48587846755981445,0.6599558591842651
1715439334914802200,4.19480224609375,1.0225448608398438,-0.6171088814735413,0.7627193927764893
1715439334924808200,4.20480810546875,0.7562961578369141,-0.5365581512451172,0.7819271683692932
1715439334934814000,4.21481396484375,0.5108871459960938,-0.5471701622009277,0.5116212964057922
1715439334944820000,4.224820068359375,0.2712974548339844,-0.5224645137786865,0.2800229787826538
1715439334954825700,4.23482568359375,0.19957447052001953,-0.48931384086608887,0.1582270860671997
1715439334964831700,4.244831787109375,0.20956707000732422,-0.40026378631591797,-0.005504965782165527
1715439334974837500,4.25483740234375,0.19600582122802734,-0.307534396648407,-0.08630883693695068
1715439334984843500,4.264843505859375,0.17340850830078125,-0.2730737328529358,-0.07375216484069824
1715439334994849300,4.274849365234375,0.12275028228759766,-0.28165286779403687,0.22412407398223877
1715439335004855300,4.284855224609375,0.019681930541992188,-0.26062577962875366,0.2544827461242676
1715439335014861000,4.294861083984375,-0.0070819854736328125,-0.26695770025253296,0.268890380859375
1715439335024867000,4.3048671875,-0.0867910385131836,-0.28625476360321045,0.3239785432815552
1715439335034872800,4.314872802734375,-0.08070087432861328,-0.308552622795105,0.19603514671325684
1715439335044878800,4.32487890625,-0.0028629302978515625,-0.26856350898742676,0.12159442901611328
1715439335054884600,4.334884521484375,0.09914207458496094,-0.25842738151550293,0.11162388324737549
1715439335064890600,4.344890625,0.20105838775634766,-0.2351820468902588,0.16847634315490723
1715439335074896400,4.354896484375,0.18324947357177734,-0.21275019645690918,0.166587233543396
1715439335084902400,4.36490234375,0.11277008056640625,-0.18994140625,0.21133601665496826
1715439335094908200,4.374908203125,0.142852783203125,-0.14300721883773804,0.09417128562927246
1715439335104914200,4.3849140625,0.21614646911621094,-0.12061744928359985,0.021811962127685547
1715439335114920000,4.394919921875,0.2131175994873047,-0.12307769060134888,0.07974851131439209
1715439335124926000,4.404926025390625,0.2060260772705078,-0.10835307836532593,0.10287284851074219
1715439335134931700,4.414931640625,0.10393428802490234,-0.09043198823928833,0.15706944465637207
1715439335144937700,4.424937744140625,-0.03638935089111328,-0.07711869478225708,0.11840879917144775
1715439335154943500,4.434943603515625,-0.1676177978515625,-0.09029930830001831,0.1948244571685791
1715439335164949500,4.444949462890625,-0.21815872192382812,-0.11013674736022949,0.1712285280227661
1715439335174955300,4.454955322265625,-0.15930843353271484,-0.14178550243377686,0.24505966901779175
1715439335184961300,4.464961181640625,0.01869487762451172,-0.16352540254592896,0.12177693843841553
1715439335194967300,4.47496728515625,0.22076034545898438,-0.2023555040359497,0.10612869262695312
1715439335204973000,4.48497314453125,0.33730125427246094,-0.22718793153762817,0.07459056377410889
1715439335214979000,4.49497900390625,0.22499847412109375,-0.24240189790725708,0.044904112815856934
1715439335224985000,4.504985107421875,-0.11142158508300781,-0.25926780700683594,-0.04274904727935791
1715439335234990800,4.514990966796875,-0.40453052520751953,-0.24994760751724243,-0.14229214191436768
1715439335244996900,4.524996826171875,-0.5066556930541992,-0.24049586057662964,-0.17283344268798828
1715439335255003000,4.5350029296875,-0.38483715057373047,-0.2406940460205078,-0.14931714534759521
1715439335265009000,4.5450087890625,-0.12518978118896484,-0.25740504264831543,-0.07505381107330322
1715439335275014700,4.5550146484375,0.16751670837402344,-0.2412981390953064,0.0193479061126709
1715439335285020700,4.565020751953125,0.30288124084472656,-0.2530410885810852,0.03431832790374756
1715439335295026700,4.575026611328125,0.24837207794189453,-0.2537462115287781,0.05721229314804077
1715439335305032400,4.585032470703125,0.10120391845703125,-0.2843940258026123,0.08364903926849365
1715439335315038500,4.59503857421875,-0.02909088134765625,-0.23904061317443848,0.08881497383117676
1715439335325044500,4.60504443359375,-0.09130001068115234,-0.19809705018997192,0.127505362033844
1715439335335050200,4.61505029296875,-0.09136676788330078,-0.18530863523483276,0.21679484844207764
1715439335345056300,4.62505615234375,-0.09621238708496094,-0.19149690866470337,0.21428394317626953
1715439335355062300,4.635062255859375,-0.05864715576171875,-0.20211750268936157,0.20185649394989014
1715439335365068000,4.645068115234375,-0.026340484619140625,-0.24083298444747925,0.19012778997421265
1715439335375074000,4.655073974609375,0.06687259674072266,-0.2507827877998352,0.21828341484069824
1715439335385080000,4.665080078125,0.19162368774414062,-0.22804254293441772,0.13846254348754883
1715439335395086000,4.675086181640625,0.2767353057861328,-0.2443651556968689,0.06480079889297485
1715439335405091800,4.685091796875,0.32776546478271484,-0.24839180707931519,0.10665589570999146
1715439335415097900,4.695097900390625,0.2794380187988281,-0.20296752452850342,0.027292966842651367
1715439335425104000,4.705103759765625,0.15213489532470703,-0.17919433116912842,-0.0684385895729065
1715439335435109600,4.715109619140625,-0.05761241912841797,-0.14693814516067505,-0.08569473028182983
1715439335445115600,4.72511572265625,-0.16505050659179688,-0.09980219602584839,-0.06940752267837524
1715439335455121700,4.73512158203125,-0.09661293029785156,-0.07612544298171997,-0.044712841510772705
1715439335465127400,4.74512744140625,-0.0247650146484375,-0.11378270387649536,0.04405009746551514
1715439335475133400,4.755133544921875,0.045861244201660156,-0.13235467672348022,0.09780830144882202
1715439335485139500,4.765139404296875,0.09199237823486328,-0.1609383225440979,0.13820374011993408
1715439335495145500,4.7751455078125,0.1187124252319336,-0.13821899890899658,0.1274089217185974
1715439335505151200,4.785151123046875,0.06493473052978516,-0.10671043395996094,0.09769564867019653
1715439335515157200,4.7951572265625,-0.03516960144042969,-0.06585961580276489,0.10033667087554932
1715439335525163300,4.805163330078125,-0.12436389923095703,-0.029649794101715088,0.10161948204040527
1715439335535169000,4.8151689453125,-0.14159584045410156,0.002050042152404785,0.05946165323257446
1715439335545175000,4.825175048828125,-0.087982177734375,-0.017995893955230713,0.08829903602600098
1715439335555180800,4.835180908203125,-0.0022563934326171875,-0.061064720153808594,0.1266753077507019
1715439335565186800,4.845186767578125,0.09142780303955078,-0.11733567714691162,0.15949803590774536
1715439335575192600,4.855192626953125,0.17392730712890625,-0.16291391849517822,0.1944480538368225
1715439335585198600,4.865198486328125,0.23603343963623047,-0.19806107878684998,0.16568374633789062
1715439335595204400,4.875204345703125,0.2500925064086914,-0.2192804515361786,0.15635991096496582
1715439335605210400,4.88521044921875,0.1982860565185547,-0.20378634333610535,0.14466005563735962
1715439335615216000,4.895216064453125,0.07692337036132812,-0.1895340383052826,0.10177034139633179
1715439335625222100,4.90522216796875,-0.08004570007324219,-0.17035388946533203,0.11685121059417725
1715439335635228000,4.915227783203125,-0.045981407165527344,-0.1321849822998047,0.10931569337844849
1715439335645234000,4.92523388671875,0.020598411560058594,-0.10495144128799438,0.06969785690307617
1715439335655239700,4.93523974609375,0.00616455078125,-0.08409792184829712,0.04559886455535889
1715439335665245700,4.94524560546875,-0.055016517639160156,-0.03616374731063843,-0.0058359503746032715
1715439335675251500,4.95525146484375,-0.1105184555053711,-0.031253695487976074,-0.05686461925506592
1715439335685257500,4.965257568359375,-0.1794729232788086,-0.039079487323760986,-0.07588464021682739
1715439335695263200,4.97526318359375,-0.19105815887451172,-0.04008138179779053,-0.10109752416610718
1715439335705269200,4.985269287109375,-0.08954429626464844,-0.05423706769943237,-0.07455849647521973
1715439335715275000,4.99527490234375,0.057376861572265625,-0.059102535247802734,-0.04389446973800659
1715439335725281000,5.005281005859375,0.14552783966064453,-0.0751996636390686,-0.03188830614089966
1715439335735286800,5.015286865234375,0.0770711898803711,-0.102408766746521,0.009602546691894531
1715439335745292800,5.025292724609375,-0.018457412719726562,-0.11566483974456787,-0.0202333927154541
1715439335755298600,5.035298583984375,-0.08431339263916016,-0.0998842716217041,-0.0558619499206543
1715439335765304600,5.0453046875,-0.1587238311767578,-0.09260207414627075,-0.02215677499771118
1715439335775310300,5.055310302734375,-0.19439029693603516,-0.08373594284057617,0.033779799938201904
1715439335785316400,5.06531640625,-0.13539886474609375,-0.08302050828933716,0.08845967054367065
1715439335795322000,5.075322021484375,-0.053832054138183594,-0.07686120271682739,0.16170060634613037
1715439335805328000,5.085327880859375,0.04062366485595703,-0.08509981632232666,0.1831861138343811
1715439335815334000,5.095333984375,0.1053762435913086,-0.09356772899627686,0.1913498044013977
1715439335825339600,5.105339599609375,0.10794639587402344,-0.06481552124023438,0.1531323790550232
1715439335835345700,5.115345703125,0.030524253845214844,-0.017998456954956055,0.13532423973083496
1715439335845351400,5.125351318359375,-0.017398834228515625,0.014488518238067627,0.12238955497741699
1715439335855357400,5.135357421875,0.04847431182861328,0.041906654834747314,0.1426137089729309
1715439335865363200,5.14536328125,0.1322612762451172,0.030557870864868164,0.1359815001487732
1715439335875369200,5.155369140625,0.2431182861328125,0.022658824920654297,0.149935781955719
1715439335885375000,5.165375,0.3618898391723633,-0.02092599868774414,0.16123223304748535
1715439335895381000,5.175381103515625,0.351776123046875,-0.07188504934310913,0.09742289781570435
1715439335905386800,5.18538671875,0.1865835189819336,-0.13393032550811768,0.006294846534729004
1715439335915392800,5.195392822265625,-0.018125534057617188,-0.16266167163848877,-0.07782250642776489
1715439335925398500,5.2053984375,-0.17717838287353516,-0.1564939022064209,-0.11884063482284546
1715439335935404500,5.215404541015625,-0.23977088928222656,-0.1712755262851715,-0.09108167886734009
1715439335945410300,5.225410400390625,-0.2263174057006836,-0.16905859112739563,-0.014190196990966797
1715439335955416300,5.235416259765625,-0.1662578582763672,-0.18365326523780823,0.03152263164520264
1715439335965422000,5.245422119140625,-0.04130744934082031,-0.17391201853752136,0.06708317995071411
1715439335975428000,5.255427978515625,0.029918670654296875,-0.1885359287261963,0.0704723596572876
1715439335985433900,5.265433837890625,0.08124160766601562,-0.17063334584236145,0.04180222749710083
1715439335995439900,5.27543994140625,0.05645179748535156,-0.13970142602920532,0.018748998641967773
1715439336005445600,5.285445556640625,-0.029142379760742188,-0.1091824471950531,-0.008627593517303467
1715439336015451600,5.29545166015625,-0.061577796936035156,-0.06925767660140991,-0.0312618613243103
1715439336025457400,5.30545751953125,-0.046378135681152344,-0.029732942581176758,-0.006151854991912842
1715439336035463400,5.31546337890625,-0.012528419494628906,0.004080533981323242,0.03796929121017456
1715439336045469200,5.32546923828125,0.011297225952148438,0.02286982536315918,0.06178319454193115
1715439336055475200,5.33547509765625,0.0017032623291015625,0.0035746097564697266,0.12204533815383911
1715439336065481000,5.34548095703125,-0.021894454956054688,-0.010766565799713135,0.11017638444900513
1715439336075487000,5.355487060546875,-0.06415081024169922,-0.033538222312927246,0.08223521709442139
1715439336085492700,5.36549267578125,-0.05417346954345703,-0.05477893352508545,0.057010531425476074
1715439336095498800,5.375498779296875,0.012083053588867188,-0.06603962182998657,0.05513322353363037
1715439336105504500,5.38550439453125,0.1149759292602539,-0.06860196590423584,0.08175671100616455
1715439336115510500,5.395510498046875,0.14566421508789062,-0.04900848865509033,0.052158892154693604
1715439336125516300,5.405516357421875,0.1478099822998047,-0.06444203853607178,0.09994083642959595
1715439336135522300,5.415522216796875,0.13597488403320312,-0.052647531032562256,0.13888603448867798
1715439336145528000,5.425528076171875,0.09615612030029297,-0.03712397813796997,0.09276324510574341
1715439336155534000,5.4355341796875,0.009903907775878906,-0.031465888023376465,0.07536166906356812
1715439336165539800,5.445539794921875,-0.07017040252685547,-0.011569559574127197,0.03992992639541626
1715439336175545900,5.4555458984375,-0.07353782653808594,-0.010442256927490234,0.015214800834655762
1715439336185551600,5.465551513671875,-0.05803680419921875,-0.013653576374053955,0.04268771409988403
1715439336195557600,5.4755576171875,-0.07114791870117188,-0.016398489475250244,0.06396323442459106
1715439336205563600,5.485563720703125,-0.10305595397949219,-0.032382071018218994,0.07372713088989258
1715439336215569400,5.4955693359375,-0.09214973449707031,-0.03792774677276611,0.077922523021698
1715439336225575400,5.505575439453125,-0.10023021697998047,-0.0761023759841919,0.06375223398208618
1715439336235581400,5.51558154296875,-0.13173294067382812,-0.10375586152076721,0.09704875946044922
1715439336245587200,5.525587158203125,-0.15812969207763672,-0.08747881650924683,0.07711702585220337
1715439336255593200,5.53559326171875,-0.16066265106201172,-0.08464163541793823,0.04249012470245361
1715439336265599200,5.54559912109375,-0.1301593780517578,-0.07200038433074951,0.07509928941726685
1715439336275605200,5.555605224609375,-0.10482025146484375,-0.0452083945274353,0.09859448671340942
1715439336285611000,5.565611083984375,-0.08464241027832031,0.00972682237625122,0.08855545520782471
1715439336295617000,5.575616943359375,-0.04605674743652344,0.05496793985366821,0.049626708030700684
1715439336305623000,5.585623046875,0.006012916564941406,0.08521819114685059,0.001820981502532959
1715439336315628800,5.59562890625,0.043173789978027344,0.09999328851699829,-0.021148264408111572
1715439336325634800,5.605634765625,0.023285865783691406,0.07118237018585205,-0.03403770923614502
1715439336335640800,5.615640869140625,-0.005641937255859375,0.032986462116241455,-0.05114102363586426
1715439336345646600,5.625646484375,-0.0011272430419921875,-0.03769403696060181,-0.06339895725250244
1715439336355652600,5.635652587890625,0.045599937438964844,-0.08348366618156433,-0.020109176635742188
1715439336365658600,5.64565869140625,0.0962076187133789,-0.14274510741233826,0.0075043439865112305
1715439336375664400,5.655664306640625,0.1365804672241211,-0.16844773292541504,0.0676339864730835
1715439336385670400,5.66567041015625,0.1622142791748047,-0.18058925867080688,0.06557643413543701
1715439336395676400,5.675676513671875,0.1310434341430664,-0.1654772162437439,0.0644029974937439
1715439336405682400,5.685682373046875,0.034607887268066406,-0.1420784890651703,0.055105507373809814
1715439336415688200,5.695688232421875,-0.1166849136352539,-0.10000905394554138,0.023157358169555664
1715439336425694200,5.705694091796875,-0.18076515197753906,-0.07612952589988708,0.020102381706237793
1715439336435700200,5.7157001953125,-0.14499759674072266,-0.0514262318611145,0.01186460256576538
1715439336445706000,5.7257060546875,-0.08629131317138672,-0.05038934946060181,-0.0008574724197387695
1715439336455712000,5.7357119140625,-0.052000999450683594,-0.04960274696350098,0.030428588390350342
1715439336465718000,5.745718017578125,-0.037036895751953125,-0.034819841384887695,0.043479740619659424
1715439336475723800,5.755723876953125,-0.022287368774414062,0.0033491849899291992,0.03337675333023071
1715439336485729800,5.765729736328125,-0.045558929443359375,0.02735346555709839,0.02229386568069458
1715439336495735800,5.77573583984375,-0.06384754180908203,0.02852630615234375,0.04822498559951782
1715439336505741800,5.785741943359375,-0.00183868408203125,0.030180931091308594,0.012089967727661133
1715439336515747600,5.79574755859375,0.059116363525390625,0.012837886810302734,0.009078562259674072
1715439336525753600,5.805753662109375,0.057877540588378906,-0.014262855052947998,0.03906649351119995
1715439336535759600,5.815759521484375,0.0237274169921875,-0.02728670835494995,0.04973113536834717
1715439336545765400,5.825765380859375,-0.024034500122070312,-0.030456602573394775,0.03125709295272827
1715439336555771400,5.835771484375,0.01842212677001953,-0.038043439388275146,0.040855586528778076
1715439336565777400,5.84577734375,0.112060546875,-0.03696721792221069,0.05105215311050415
1715439336575783200,5.855783203125,0.11944293975830078,-0.032512664794921875,0.05618530511856079
1715439336585789200,5.8657890625,0.051483154296875,-0.024518311023712158,0.07160836458206177
1715439336595795200,5.875795166015625,-0.0011997222900390625,-0.016838371753692627,0.0068528056144714355
1715439336605801000,5.885801025390625,-0.03900337219238281,-0.013196706771850586,-0.029932022094726562
1715439336615807000,5.895806884765625,-0.024382591247558594,-0.0325661301612854,-0.013815999031066895
1715439336625812700,5.905812744140625,0.023120880126953125,-0.037808239459991455,-0.014342844486236572
1715439336635818800,5.91581884765625,0.036910057067871094,-0.03358942270278931,-0.04253298044204712
1715439336645824500,5.925824462890625,-0.020194053649902344,-0.029060184955596924,-0.01869213581085205
1715439336655830500,5.93583056640625,-0.07643699645996094,-0.03281295299530029,-0.005099475383758545
1715439336665836300,5.945836181640625,-0.05181407928466797,-0.030250251293182373,0.0641525387763977
1715439336675842300,5.95584228515625,0.043000221252441406,-0.017870008945465088,0.08508908748626709
1715439336685848000,5.96584814453125,0.0985879898071289,-0.039133667945861816,0.10560622811317444
1715439336695854000,5.97585400390625,0.13443756103515625,-0.0704403817653656,0.08764052391052246
1715439336705859800,5.98585986328125,0.11326313018798828,-0.09781306982040405,0.0701141357421875
1715439336715865900,5.995865966796875,0.09728717803955078,-0.11649444699287415,0.07770663499832153
1715439336725871600,6.00587158203125,0.0769491195678711,-0.11211010813713074,0.0010679364204406738
1715439336735877600,6.015877685546875,0.0051822662353515625,-0.07063958048820496,-0.013076245784759521
1715439336745883400,6.02588330078125,-0.07954692840576172,-0.034156620502471924,-0.0460246205329895
1715439336755889400,6.035889404296875,-0.13939285278320312,-0.0018805265426635742,-0.07394248247146606
1715439336765895200,6.045895263671875,-0.15128517150878906,0.026549100875854492,-0.09765082597732544
1715439336775901200,6.055901123046875,-0.13013744354248047,0.013212025165557861,-0.07024204730987549
1715439336785907000,6.065906982421875,-0.11417102813720703,0.0057929158210754395,-0.07271140813827515
1715439336795913000,6.075912841796875,-0.10803508758544922,-0.03817814588546753,-0.06740105152130127
1715439336805918700,6.085918701171875,-0.07382488250732422,-0.06658801436424255,-0.04878878593444824
1715439336815924700,6.0959248046875,-0.04491996765136719,-0.10333561897277832,-0.03991347551345825
1715439336825930500,6.105930419921875,0.011728286743164062,-0.0923784077167511,-0.022380471229553223
1715439336835936500,6.1159365234375,0.07221221923828125,-0.0870262086391449,0.00479733943939209
1715439336845942300,6.1259423828125,0.09419059753417969,-0.09272339940071106,0.023751497268676758
1715439336855948300,6.1359482421875,0.06413936614990234,-0.06659457087516785,0.03421252965927124
1715439336865954000,6.1459541015625,-0.0030384063720703125,-0.02207764983177185,0.04991835355758667
1715439336875960000,6.1559599609375,-0.026762962341308594,-0.03389531373977661,0.07005628943443298
1715439336885965800,6.1659658203125,0.020536422729492188,-0.021143287420272827,0.09058487415313721
1715439336895971800,6.175971923828125,0.10476207733154297,-0.017998456954956055,0.1445753574371338
1715439336905977600,6.1859775390625,0.14995193481445312,-0.03432479500770569,0.15071237087249756
1715439336915983600,6.195983642578125,0.10965824127197266,-0.046146929264068604,0.10498639941215515
1715439336925989400,6.2059892578125,0.08421802520751953,-0.034809261560440063,0.06998854875564575
1715439336935995400,6.215995361328125,0.05924797058105469,-0.028873711824417114,0.0030355453491210938
1715439336946001200,6.226001220703125,-0.040637969970703125,-0.02305319905281067,-0.03446155786514282
1715439336956007200,6.236007080078125,-0.10596847534179688,-0.020926058292388916,-0.05282783508300781
1715439336966013000,6.246012939453125,-0.024336814880371094,-0.02243664860725403,-0.07173657417297363
1715439336976019000,6.25601904296875,0.06060600280761719,-0.023737668991088867,-0.024944007396697998
1715439336986024700,6.266024658203125,0.12059974670410156,-0.044366270303726196,-0.0027835965156555176
1715439336996030700,6.27603076171875,0.20787811279296875,-0.03250432014465332,0.009496092796325684
1715439337006036500,6.286036376953125,0.2137451171875,-0.013050884008407593,0.01718980073928833
1715439337016042500,6.29604248046875,0.11132240295410156,-0.004566222429275513,0.011566698551177979
1715439337026048300,6.30604833984375,-0.036464691162109375,0.003673553466796875,0.006243705749511719
1715439337036054300,6.31605419921875,-0.12063026428222656,-0.0015296339988708496,-0.008721888065338135
1715439337046060000,6.32606005859375,-0.16582107543945312,-0.005207151174545288,-0.0005186200141906738
1715439337056065800,6.336065673828125,-0.14444637298583984,-0.0027743875980377197,0.02074587345123291
1715439337066071800,6.34607177734375,-0.05751991271972656,0.004743456840515137,0.03705546259880066
1715439337076077600,6.35607763671875,-0.000247955322265625,0.007035642862319946,0.06304430961608887
1715439337086083600,6.36608349609375,0.046706199645996094,0.008593767881393433,0.032531946897506714
1715439337096089300,6.37608935546875,0.06470966339111328,0.03744944930076599,0.008061349391937256
1715439337106095400,6.386095458984375,0.049559593200683594,0.04574716091156006,0.0038596689701080322
1715439337116101000,6.39610107421875,-0.017093658447265625,0.029832392930984497,-0.009393274784088135
1715439337126107100,6.406107177734375,-0.04503631591796875,0.010164976119995117,0.019202589988708496
1715439337136113000,6.41611279296875,-0.039661407470703125,-0.012872904539108276,0.04606598615646362
1715439337146119000,6.426118896484375,0.03614044189453125,-0.06286594271659851,0.05219000577926636
1715439337156124700,6.436124755859375,0.11531829833984375,-0.10701274871826172,0.038238465785980225
1715439337166130700,6.446130615234375,0.16025066375732422,-0.13219743967056274,0.03404814004898071
1715439337176136700,6.45613671875,0.13390254974365234,-0.14866450428962708,0.04028594493865967
1715439337186142500,6.466142578125,0.13637256622314453,-0.133306622505188,0.05720922350883484
1715439337196148500,6.4761484375,0.11535263061523438,-0.11020302772521973,0.041536152362823486
1715439337206154500,6.486154541015625,0.03827857971191406,-0.07929188013076782,0.055318593978881836
1715439337216160500,6.496160400390625,-0.05152416229248047,-0.04959380626678467,0.028169095516204834
1715439337226166300,6.506166259765625,-0.16809749603271484,-0.024483919143676758,-0.0265769362449646
1715439337236172300,6.51617236328125,-0.20274829864501953,-0.012491762638092041,-0.06169772148132324
1715439337246178300,6.52617822265625,-0.19923686981201172,0.000705718994140625,-0.10139167308807373
1715439337256184000,6.53618408203125,-0.1817770004272461,0.005865722894668579,-0.10843861103057861
1715439337266190000,6.546190185546875,-0.09873580932617188,0.016323626041412354,-0.10630175471305847
1715439337276196000,6.556196044921875,-0.031212806701660156,0.007947683334350586,-0.0901021659374237
1715439337286201900,6.566201904296875,0.011610031127929688,0.009004473686218262,-0.06078651547431946
1715439337296208000,6.576207763671875,0.039520263671875,0.005216538906097412,-0.05235356092453003
1715439337306214000,6.5862138671875,-0.0037202835083007812,-0.003324568271636963,0.0017833411693572998
1715439337316219600,6.5962197265625,-0.013317108154296875,-0.011413156986236572,0.0403769314289093
1715439337326225700,6.6062255859375,0.038384437561035156,-0.023759931325912476,0.05826067924499512
1715439337336231700,6.616231689453125,0.08922672271728516,-0.031283825635910034,0.06633511185646057
1715439337346237700,6.62623779296875,0.12048149108886719,-0.06785055994987488,0.08473175764083862
1715439337356243500,6.636243408203125,0.11837005615234375,-0.10460752248764038,0.08565941452980042
1715439337366249500,6.64624951171875,0.0787057876586914,-0.1321401298046112,0.06868326663970947
1715439337376255500,6.65625537109375,0.03507041931152344,-0.11251157522201538,0.07679778337478638
1715439337386261200,6.66626123046875,-0.021925926208496094,-0.06974628567695618,0.05256137251853943
1715439337396267300,6.676267333984375,-0.08742046356201172,-0.031660765409469604,0.024038046598434448
1715439337406273300,6.686273193359375,-0.09067058563232422,0.01153033971786499,-0.023153871297836304
1715439337416279000,6.696279052734375,-0.07040214538574219,0.04078483581542969,-0.05156782269477844
1715439337426285000,6.70628515625,-0.041123390197753906,0.0325855016708374,-0.052099406719207764
1715439337436291000,6.716291015625,0.006520271301269531,0.005673915147781372,-0.05693131685256958
1715439337446296800,6.726296875,0.05812549591064453,-0.021220922470092773,-0.09875023365020752
1715439337456302800,6.736302734375,0.05708885192871094,-0.0339735746383667,-0.13999265432357788
1715439337466308900,6.746308837890625,0.018390655517578125,-0.027909964323043823,-0.16685616970062256
1715439337476315000,6.75631494140625,-0.04319572448730469,0.02039557695388794,-0.1648443639278412
1715439337486320600,6.766320556640625,-0.05196094512939453,0.04442131519317627,-0.11099860072135925
1715439337496326700,6.77632666015625,-0.0747528076171875,0.07293179631233215,-0.07302719354629517
1715439337506332700,6.786332763671875,-0.10195541381835938,0.06348046660423279,-0.032548606395721436
1715439337516338400,6.79633837890625,-0.09107303619384766,0.021316200494766235,-0.007604748010635376
1715439337526344400,6.806344482421875,-0.07097911834716797,-0.025063127279281616,0.020906805992126465
1715439337536350500,6.8163505859375,-0.06060314178466797,-0.07095736265182495,0.054082512855529785
1715439337546356200,6.826356201171875,-0.04565238952636719,-0.07860317826271057,0.04496484994888306
1715439337556362200,6.8363623046875,-0.03567981719970703,-0.09050515294075012,0.07347562909126282
1715439337566368300,6.8463681640625,-0.02589893341064453,-0.11149787902832031,0.10101824998855591
1715439337576374300,6.856374267578125,-0.044541358947753906,-0.1221880316734314,0.10478299856185913
1715439337586380000,6.866380126953125,-0.01580333709716797,-0.10809797048568726,0.11844393610954285
1715439337596386000,6.876385986328125,0.07843780517578125,-0.06564536690711975,0.11472594738006592
1715439337606392000,6.88639208984375,0.12877559661865234,-0.04301658272743225,0.11652487516403198
1715439337616397800,6.896397705078125,0.11232948303222656,-0.016252964735031128,0.07509976625442505
1715439337626403800,6.90640380859375,-0.016860008239746094,0.038661032915115356,0.10031735897064209
1715439337636409600,6.91640966796875,-0.002643585205078125,0.04169869422912598,-0.010807991027832031
1715439337646415600,6.92641552734375,0.06311511993408203,0.07793387770652771,-0.026032328605651855
1715439337656421400,6.93642138671875,0.1278076171875,0.07526087760925293,-0.02208128571510315
1715439337666427400,6.946427490234375,0.13024616241455078,0.07169193029403687,0.005334973335266113
1715439337676433200,6.95643310546875,0.13266658782958984,0.05813834071159363,0.004034668207168579
1715439337686439200,6.966439208984375,0.10681915283203125,0.0347619354724884,0.012161314487457275
1715439337696445000,6.97644482421875,0.05318927764892578,0.011569023132324219,0.0020405948162078857
1715439337706450700,6.98645068359375,0.02870941162109375,-0.006334781646728516,-0.007613271474838257
1715439337716456700,6.996456787109375,-0.004803657531738281,-0.01871103048324585,0.006337553262710571
1715439337726462500,7.00646240234375,-0.009512901306152344,-0.03987666964530945,0.010853230953216553
1715439337736468500,7.016468505859375,0.03767585754394531,-0.023223072290420532,0.06279677152633667
1715439337746474200,7.02647412109375,0.06055450439453125,-0.03558942675590515,0.0950632393360138
1715439337756480300,7.036480224609375,0.02186298370361328,-0.034097880125045776,0.10339009761810303
1715439337766486000,7.046486083984375,-0.0020084381103515625,-0.033006519079208374,0.09831240773200989
1715439337776492000,7.056491943359375,-0.04901695251464844,-0.01318126916885376,0.04635527729988098
1715439337786497800,7.066497802734375,-0.0999908447265625,0.002026468515396118,0.03232046961784363
1715439337796503800,7.07650390625,-0.08422565460205078,-0.0013332962989807129,-0.0006211400032043457
1715439337806509600,7.086509521484375,-0.06404304504394531,0.0003769397735595703,-0.009887844324111938
1715439337816515600,7.096515625,-0.025399208068847656,0.006960868835449219,-0.019734114408493042
1715439337826521300,7.106521240234375,0.0549774169921875,-0.01031869649887085,-0.006083667278289795
1715439337836527400,7.11652734375,0.12937259674072266,-0.028338253498077393,0.012773782014846802
1715439337846533000,7.126533203125,0.14608001708984375,-0.056907474994659424,-0.010946333408355713
1715439337856539100,7.1365390625,0.10133838653564453,-0.057678550481796265,-0.03406450152397156
1715439337866545000,7.146544921875,-0.0038537979125976562,-0.04964369535446167,-0.052298784255981445
1715439337876551000,7.156551025390625,-0.06023216247558594,-0.04154437780380249,-0.047106385231018066
1715439337886556700,7.166556640625,-0.11568927764892578,-0.03317931294441223,-0.05624040961265564
1715439337896562700,7.176562744140625,-0.13727664947509766,-0.03867867588996887,-0.05110728740692139
1715439337906568400,7.186568359375,-0.14441394805908203,-0.03886967897415161,-0.051188528537750244
1715439337916574500,7.196574462890625,-0.13735389709472656,-0.03835177421569824,-0.047090500593185425
1715439337926580200,7.206580322265625,-0.13989543914794922,-0.0370296835899353,-0.04870885610580444
1715439337936586200,7.216586181640625,-0.06240653991699219,-0.02069234848022461,-0.060350626707077026
1715439337946592000,7.226592041015625,-0.005089759826660156,-0.004033446311950684,-0.07714757323265076
1715439337956598000,7.236597900390625,0.07483673095703125,-0.020731836557388306,-0.03205466270446777
1715439337966603800,7.246603759765625,0.15351390838623047,-0.04771575331687927,0.003890126943588257
1715439337976609800,7.25660986328125,0.18856525421142578,-0.08972489833831787,0.049058109521865845
1715439337986615600,7.266615478515625,0.19481754302978516,-0.13697278499603271,0.06973057985305786
1715439337996621600,7.27662158203125,0.16330718994140625,-0.15578912198543549,0.06621590256690979
1715439338006627300,7.28662744140625,0.11345291137695312,-0.14122453331947327,0.04310202598571777
1715439338016633300,7.29663330078125,0.09268379211425781,-0.11236757040023804,0.025491058826446533
1715439338026639000,7.30663916015625,0.07703113555908203,-0.09832403063774109,0.028454244136810303
1715439338036645000,7.31664501953125,0.03343772888183594,-0.07551077008247375,0.037006497383117676
1715439338046651000,7.32665087890625,-0.004658699035644531,-0.058291465044021606,0.04185512661933899
1715439338056657000,7.336656982421875,-0.09390735626220703,-0.03684157133102417,0.04192870855331421
1715439338066662700,7.34666259765625,-0.18644428253173828,-0.024220287799835205,0.050502657890319824
1715439338076668700,7.356668701171875,-0.19277477264404297,-0.010454148054122925,0.006013929843902588
1715439338086674400,7.36667431640625,-0.15667057037353516,0.013639688491821289,-0.037935733795166016
1715439338096680400,7.376680419921875,-0.10706329345703125,0.014599353075027466,-0.066834956407547
1715439338106686200,7.386686279296875,-0.07238101959228516,0.025349736213684082,-0.08472159504890442
1715439338116692200,7.396692138671875,-0.047707557678222656,0.03661206364631653,-0.09261223673820496
1715439338126698000,7.406697998046875,0.009501457214355469,0.05268499255180359,-0.05340641736984253
1715439338136704000,7.4167041015625,0.03277111053466797,0.045030683279037476,-0.03903383016586304
1715439338146710000,7.4267099609375,0.07446670532226562,0.0042189061641693115,-0.01632314920425415
1715439338156715800,7.4367158203125,0.10610485076904297,-0.03223571181297302,0.04890283942222595
1715439338166721800,7.4467216796875,0.09018802642822266,-0.07400628924369812,0.052264392375946045
1715439338176727800,7.456727783203125,0.046250343322753906,-0.06347295641899109,0.07328635454177856
1715439338186733600,7.466733642578125,0.012406349182128906,-0.0435749888420105,0.05486103892326355
1715439338196739600,7.476739501953125,-0.011470794677734375,-0.03341025114059448,0.07872119545936584
1715439338206745600,7.48674560546875,-0.006634712219238281,-0.02360987663269043,0.07078316807746887
1715439338216751600,7.496751708984375,-0.015959739685058594,-0.009562849998474121,0.03095725178718567
1715439338226757400,7.50675732421875,-0.03927326202392578,-0.00015231966972351074,0.015128016471862793
1715439338236763400,7.516763427734375,-0.07163333892822266,0.014116138219833374,0.004061281681060791
1715439338246769400,7.526769287109375,-0.051654815673828125,0.014327138662338257,0.007714420557022095
1715439338256775200,7.536775146484375,0.03870201110839844,0.02805185317993164,0.008363723754882812
1715439338266781200,7.54678125,0.09466838836669922,0.03560757637023926,-0.018313050270080566
1715439338276787200,7.556787109375,0.06493949890136719,0.042203694581985474,-0.031458884477615356
1715439338286793000,7.56679296875,-0.025552749633789062,0.048685938119888306,-0.05044037103652954
1715439338296799000,7.576799072265625,-0.03455543518066406,0.03212955594062805,-0.04210042953491211
1715439338306805000,7.586804931640625,0.01781463623046875,0.020760715007781982,-0.03809535503387451
1715439338316810800,7.596810791015625,0.06933784484863281,0.009057760238647461,-0.0480838418006897
1715439338326816800,7.606816650390625,0.09173393249511719,-0.0216904878616333,0.0023834407329559326
1715439338336822800,7.61682275390625,0.06195259094238281,-0.03359043598175049,0.008823901414871216
1715439338346828800,7.626828857421875,0.03265571594238281,-0.04077598452568054,0.00513458251953125
1715439338356834600,7.63683447265625,0.036833763122558594,-0.029413819313049316,0.020658433437347412
1715439338366840600,7.646840576171875,-0.0013818740844726562,-0.018647581338882446,-0.0007044970989227295
1715439338376846600,7.6568466796875,-0.07661056518554688,-0.007854253053665161,-0.030405133962631226
1715439338386852400,7.666852294921875,-0.15062236785888672,0.008380532264709473,-0.031481385231018066
1715439338396858400,7.6768583984375,-0.14809894561767578,-0.01209104061126709,-0.022819966077804565
1715439338406864400,7.686864501953125,-0.08442974090576172,-0.0077626705169677734,-0.014008402824401855
1715439338416870100,7.6968701171875,-0.03600597381591797,-0.0027975142002105713,-0.015705406665802002
1715439338426876200,7.706876220703125,-0.026132583618164062,-0.0442885160446167,-0.014122217893600464
1715439338436882200,7.716882080078125,-0.007052421569824219,-0.018544524908065796,0.04321932792663574
1715439338446888000,7.726887939453125,0.07770919799804688,-0.03621917963027954,0.06830443441867828
1715439338456894000,7.73689404296875,0.1611948013305664,-0.045507192611694336,0.06742306053638458
1715439338466900000,7.74689990234375,0.14447975158691406,-0.04634931683540344,0.0674973875284195
1715439338476906000,7.756906005859375,0.03859996795654297,-0.04747772216796875,0.048954516649246216
1715439338486911700,7.766911865234375,-0.046721458435058594,-0.029129892587661743,0.025499582290649414
1715439338496917800,7.776917724609375,-0.07418632507324219,-0.019472092390060425,0.0015058815479278564
1715439338506923800,7.786923828125,-0.058844566345214844,-0.018879354000091553,-0.02711021900177002
1715439338516929500,7.796929443359375,-0.015476226806640625,-0.032635509967803955,-0.06866002082824707
1715439338526935600,7.806935546875,0.013085365295410156,-0.03727486729621887,-0.07114118337631226
1715439338536941600,7.816941650390625,-0.029471397399902344,-0.01810431480407715,-0.06909811496734619
1715439338546947300,7.826947265625,-0.08549976348876953,0.01587781310081482,-0.0676361620426178
1715439338556953300,7.836953369140625,-0.07944679260253906,0.05532357096672058,-0.03838279843330383
1715439338566959400,7.84695947265625,0.02538585662841797,0.08508679270744324,0.00019052624702453613
1715439338576965000,7.856965087890625,0.11909008026123047,0.09468004107475281,0.03831237554550171
1715439338586971100,7.86697119140625,0.1265249252319336,0.07441329956054688,0.08029700815677643
1715439338596977200,7.87697705078125,0.05850982666015625,0.03922981023788452,0.0641564130783081
1715439338606983200,7.886983154296875,0.0010509490966796875,-0.0003750920295715332,0.08104926347732544
1715439338616989000,7.896989013671875,-0.003662109375,-0.02527657151222229,0.08324772119522095
1715439338626995000,7.906994873046875,-0.05070018768310547,-0.05434775352478027,0.08470964431762695
1715439338637000700,7.917000732421875,-0.10639476776123047,-0.08259105682373047,0.03868710994720459
1715439338647006700,7.9270068359375,-0.08580780029296875,-0.09150287508964539,0.003396540880203247
1715439338657012500,7.937012451171875,-0.10795116424560547,-0.08120903372764587,-0.017263710498809814
1715439338667018500,7.9470185546875,-0.14388656616210938,-0.06083405017852783,-0.06592264771461487
1715439338677024300,7.957024169921875,-0.1321735382080078,-0.015917330980300903,-0.08981835842132568
1715439338687030300,7.9670302734375,-0.07829856872558594,0.005620062351226807,-0.07054466009140015
1715439338697036000,7.9770361328125,-0.05360984802246094,0.03241601586341858,-0.051718056201934814
1715439338707042000,7.9870419921875,0.0035953521728515625,0.040733546018600464,-0.014500051736831665
1715439338717047800,7.9970478515625,0.1022481918334961,0.020748227834701538,0.032321929931640625
