time,seconds_elapsed,z,y,x
1715439425669671700,0.128671630859375,0.7276611328125,-0.08023691177368164,0.07204561680555344
1715439425679681800,0.138681884765625,0.6291751861572266,-0.04236555099487305,0.012738429009914398
1715439425689692400,0.1486923828125,0.45478343963623047,-0.03511190414428711,-0.08883533626794815
1715439425699703600,0.15870361328125,0.3383522033691406,-0.03359484672546387,-0.06807277351617813
1715439425709715000,0.16871484375,0.2774991989135742,-0.037035226821899414,-0.03613976761698723
1715439425719726600,0.1787265625,0.19599342346191406,-0.01831364631652832,-0.011007033288478851
1715439425729734700,0.188734619140625,0.09859848022460938,-0.01890420913696289,0.03168165683746338
1715439425739740700,0.19874072265625,0.012287139892578125,-0.0018639564514160156,0.047350384294986725
1715439425749746700,0.20874658203125,-0.055370330810546875,0.0050656795501708984,0.01492435485124588
1715439425759752700,0.218752685546875,-0.11950206756591797,0.029816627502441406,-0.03242051973938942
1715439425769758700,0.2287587890625,-0.09924125671386719,0.0360565185546875,-0.05391138046979904
1715439425779764700,0.2387646484375,-0.021271705627441406,0.04255199432373047,-0.07476652413606644
1715439425789770800,0.248770751953125,-0.029180526733398438,0.021579504013061523,-0.1224839985370636
1715439425799777000,0.258777099609375,-0.004825592041015625,-0.002864837646484375,-0.07263186573982239
1715439425809783000,0.268782958984375,-0.013808250427246094,-0.0210111141204834,-0.0749734416604042
1715439425819789000,0.2787890625,0.0412750244140625,-0.01379704475402832,-0.09644117206335068
1715439425829795000,0.288795166015625,0.0936737060546875,0.00409698486328125,-0.1472591757774353
1715439425839801000,0.298801025390625,0.17139625549316406,0.027339458465576172,-0.1066686362028122
1715439425849807000,0.30880712890625,0.20928478240966797,0.03697943687438965,-0.02728104218840599
1715439425859813000,0.318813232421875,0.24599266052246094,-0.004076719284057617,-0.0015238374471664429
1715439425869819100,0.328819091796875,0.2636127471923828,-0.044860124588012695,0.019584383815526962
1715439425879825200,0.3388251953125,0.24460792541503906,-0.07264900207519531,0.083483025431633
1715439425889831200,0.3488310546875,0.1900615692138672,-0.0739295482635498,0.11014383286237717
1715439425899837400,0.35883740234375,0.16117286682128906,-0.06779932975769043,0.006430711597204208
1715439425909843500,0.368843505859375,0.10590553283691406,-0.007647037506103516,-0.04390093684196472
1715439425919849500,0.378849365234375,0.00592041015625,0.03204154968261719,-0.015229546464979649
1715439425929855500,0.38885546875,-0.0636138916015625,0.0112152099609375,-0.04519818723201752
1715439425939861500,0.398861572265625,-0.13176822662353516,-0.012034416198730469,-0.029049377888441086
1715439425949867500,0.408867431640625,-0.12423515319824219,-0.014094114303588867,0.04334476590156555
1715439425959873500,0.41887353515625,-0.02906513214111328,-0.04195809364318848,0.08783218264579773
1715439425969879600,0.428879638671875,0.1239156723022461,-0.06321334838867188,0.06096583604812622
1715439425979885600,0.438885498046875,0.2825660705566406,-0.03281092643737793,-0.018889334052801132
1715439425989891600,0.4488916015625,0.3726062774658203,0.009302854537963867,0.008915849030017853
1715439425999897900,0.45889794921875,0.2649660110473633,0.0626063346862793,0.082626573741436
1715439426009903900,0.46890380859375,0.07622718811035156,0.08051538467407227,0.10488959401845932
1715439426019910000,0.478909912109375,-0.09385967254638672,0.07837343215942383,0.08156963437795639
1715439426029916000,0.488916015625,-0.22285747528076172,0.06256794929504395,0.11164483428001404
1715439426039922000,0.498921875,-0.3027496337890625,0.07660460472106934,0.19497643411159515
1715439426049928000,0.508927978515625,-0.25060176849365234,0.08802461624145508,0.16748014092445374
1715439426059934000,0.518933837890625,-0.017404556274414062,0.049616098403930664,0.035128481686115265
1715439426069940000,0.52893994140625,0.23905372619628906,0.03116750717163086,-0.05634722113609314
1715439426079946000,0.538946044921875,0.4156761169433594,0.05915427207946777,-0.13155236840248108
1715439426089952300,0.5489521484375,0.6083564758300781,0.019041061401367188,-0.2062826007604599
1715439426099958300,0.558958251953125,0.7044267654418945,0.0006451606750488281,-0.22601628303527832
1715439426109964300,0.56896435546875,0.6493921279907227,0.04111981391906738,-0.18327662348747253
1715439426119970600,0.578970458984375,0.5021877288818359,0.07428956031799316,-0.1499394327402115
1715439426129976600,0.5889765625,0.2828330993652344,0.06387829780578613,-0.0879705548286438
1715439426139982600,0.598982666015625,0.058037757873535156,0.03035449981689453,-0.014989007264375687
1715439426149988600,0.608988525390625,-0.1255054473876953,0.04565286636352539,0.08448182046413422
1715439426159995000,0.618994873046875,-0.25945377349853516,0.03913545608520508,0.0983712300658226
1715439426170001000,0.6290009765625,-0.24594497680664062,0.020778894424438477,-0.0036136358976364136
1715439426180007000,0.6390068359375,-0.1390380859375,0.0608067512512207,-0.0654594823718071
1715439426190013200,0.64901318359375,0.017803192138671875,0.08162379264831543,-0.08453404903411865
1715439426200019200,0.659019287109375,0.08764839172363281,0.058527231216430664,-0.029101431369781494
1715439426210025200,0.669025146484375,0.029636383056640625,0.0438389778137207,0.07603464275598526
1715439426220031500,0.679031494140625,-0.06957435607910156,0.052326202392578125,0.060075581073760986
1715439426230037500,0.68903759765625,-0.13433361053466797,0.08959746360778809,-0.052332766354084015
1715439426240043500,0.69904345703125,-0.13746070861816406,0.10976743698120117,-0.09504881501197815
1715439426250049800,0.7090498046875,-0.103729248046875,0.033666133880615234,0.022754162549972534
1715439426260055800,0.719055908203125,-0.019379615783691406,-0.10042262077331543,0.16050219535827637
1715439426270061800,0.729061767578125,0.06337356567382812,-0.1612718105316162,0.23122818768024445
1715439426280067800,0.73906787109375,0.15425968170166016,-0.1464846134185791,0.1951572746038437
1715439426290074000,0.74907421875,0.25340843200683594,-0.08173942565917969,0.06761886179447174
1715439426300080000,0.759080078125,0.34206390380859375,-0.029657363891601562,-0.04835178703069687
1715439426310086100,0.769086181640625,0.3735675811767578,0.009298563003540039,-0.13176842033863068
1715439426320092400,0.779092529296875,0.2735786437988281,0.09657454490661621,-0.29431188106536865
1715439426330098400,0.789098388671875,0.04859352111816406,0.15281009674072266,-0.3920983076095581
1715439426340104400,0.7991044921875,-0.15378856658935547,0.15645241737365723,-0.3228119909763336
1715439426350110700,0.80911083984375,-0.2637453079223633,0.07207179069519043,-0.13070327043533325
1715439426360116700,0.81911669921875,-0.2971343994140625,-0.008824825286865234,-0.009502090513706207
1715439426370122800,0.829122802734375,-0.2551593780517578,-0.0018467903137207031,0.0343998447060585
1715439426380128800,0.839128662109375,-0.14821147918701172,0.03405046463012695,0.01314614713191986
1715439426390135000,0.849135009765625,-0.05715179443359375,0.055123090744018555,-0.06262233853340149
1715439426400141000,0.85914111328125,-0.024028778076171875,0.1038050651550293,-0.18831130862236023
1715439426410147000,0.86914697265625,-0.010232925415039062,0.12323355674743652,-0.17957071959972382
1715439426420153300,0.8791533203125,-0.010877609252929688,0.11438679695129395,-0.1426238864660263
1715439426430159400,0.889159423828125,-0.016242027282714844,0.10108113288879395,-0.1588335484266281
1715439426440165400,0.899165283203125,0.006748199462890625,0.08329081535339355,-0.12566518783569336
1715439426450171600,0.909171630859375,0.02477741241455078,0.05128026008605957,-0.09622886776924133
1715439426460177700,0.919177734375,0.061432838439941406,0.052471160888671875,-0.0313262939453125
1715439426470183700,0.92918359375,0.09288883209228516,0.0297088623046875,0.00844055786728859
1715439426480190000,0.93918994140625,0.11931514739990234,0.01134800910949707,-0.017871972173452377
1715439426490196000,0.949196044921875,0.16910266876220703,0.0206606388092041,-0.07070516794919968
1715439426500202000,0.959201904296875,0.1476602554321289,0.09023880958557129,0.0669865757226944
1715439426510208000,0.9692080078125,0.1454019546508789,0.07860374450683594,0.030508242547512054
1715439426520214300,0.97921435546875,0.17616748809814453,0.04822182655334473,-0.041800979524850845
1715439426530220300,0.98922021484375,0.14047527313232422,0.06081652641296387,-0.061407867819070816
1715439426540226300,0.999226318359375,0.06753826141357422,0.06437253952026367,-0.07175533473491669
1715439426550232600,1.009232666015625,-0.009151458740234375,0.04050445556640625,-0.055140476673841476
1715439426560238600,1.019238525390625,-0.07090377807617188,0.01861262321472168,-0.011716592125594616
1715439426570244600,1.02924462890625,-0.06611919403076172,-0.010951042175292969,0.045622266829013824
1715439426580251000,1.0392509765625,0.03266620635986328,-0.020893096923828125,0.04738667607307434
1715439426590257000,1.0492568359375,0.1347484588623047,0.0015001296997070312,-0.005950585938990116
1715439426600263000,1.059262939453125,0.20737743377685547,0.0030074119567871094,-0.030018027871847153
1715439426610269000,1.06926904296875,0.2557239532470703,0.002908468246459961,0.01709255576133728
1715439426620275200,1.079275146484375,0.2330188751220703,0.025068998336791992,-0.01697426661849022
1715439426630281200,1.08928125,0.2061910629272461,0.05558490753173828,-0.08484581112861633
1715439426640287200,1.099287353515625,0.1563577651977539,0.052335262298583984,-0.10198543965816498
1715439426650293500,1.10929345703125,0.1026773452758789,0.044332027435302734,-0.0644216388463974
1715439426660299500,1.119299560546875,0.031058311462402344,0.0317535400390625,0.03212566301226616
1715439426670305500,1.129305419921875,-0.06287765502929688,0.02399444580078125,0.1455318182706833
1715439426680311800,1.139311767578125,-0.1458578109741211,0.007046222686767578,0.19657769799232483
1715439426690317800,1.14931787109375,-0.20400142669677734,0.004802227020263672,0.20127911865711212
1715439426700323800,1.15932373046875,-0.22836685180664062,-0.0016205310821533203,0.2315901666879654
1715439426710330000,1.169330078125,-0.23376083374023438,0.021201372146606445,0.20195171236991882
1715439426720336100,1.179336181640625,-0.1923360824584961,0.04482579231262207,0.13619403541088104
1715439426730342100,1.189342041015625,-0.08127117156982422,0.04550004005432129,0.06387142837047577
1715439426740348200,1.19934814453125,0.03238201141357422,0.028220176696777344,-0.047580089420080185
1715439426750354400,1.2093544921875,0.12525367736816406,0.0020139217376708984,-0.16982774436473846
1715439426760360400,1.2193603515625,0.1837444305419922,-0.01943683624267578,-0.20013666152954102
1715439426770366500,1.229366455078125,0.22717761993408203,-0.03591728210449219,-0.178338885307312
1715439426780372700,1.239372802734375,0.2512969970703125,-0.062331199645996094,-0.1722107082605362
1715439426790378800,1.249378662109375,0.22831344604492188,-0.08959364891052246,-0.1959431767463684
1715439426800384800,1.259384765625,0.18267059326171875,-0.09925484657287598,-0.17360350489616394
1715439426810391000,1.26939111328125,0.16182994842529297,-0.06806564331054688,-0.16715432703495026
1715439426820397000,1.27939697265625,0.005190849304199219,-0.05762171745300293,-0.12997950613498688
1715439426830403000,1.289403076171875,-0.16296958923339844,-0.02851700782775879,-0.10400114208459854
1715439426840409000,1.2994091796875,-0.2580604553222656,-0.017538785934448242,-0.08437374234199524
1715439426850415400,1.309415283203125,-0.2578115463256836,0.013482809066772461,-0.07514453679323196
1715439426860421400,1.31942138671875,-0.2392101287841797,0.06440949440002441,-0.12299755215644836
1715439426870427400,1.329427490234375,-0.19311237335205078,0.09242725372314453,-0.1327490210533142
1715439426880433700,1.33943359375,-0.11991405487060547,0.11655473709106445,-0.052587710320949554
1715439426890439700,1.349439697265625,-0.03869152069091797,0.14087581634521484,-0.03403608128428459
1715439426900445700,1.35944580078125,0.02708911895751953,0.15056777000427246,-0.06166515871882439
1715439426910452000,1.369451904296875,0.08719348907470703,0.14557862281799316,-0.026012331247329712
1715439426920458000,1.3794580078125,0.1795330047607422,0.12566256523132324,0.048374518752098083
1715439426930464000,1.389464111328125,0.21905136108398438,0.11382293701171875,0.04292874410748482
1715439426940470000,1.399469970703125,0.19712448120117188,0.11021947860717773,-0.036723896861076355
1715439426950476300,1.409476318359375,0.11455917358398438,0.1154012680053711,-0.11547161638736725
1715439426960482300,1.419482421875,0.0944814682006836,0.1349198818206787,-0.16165563464164734
1715439426970488300,1.42948828125,0.09804439544677734,0.14067602157592773,-0.21028311550617218
1715439426980494600,1.43949462890625,0.12485504150390625,0.11876749992370605,-0.21888837218284607
1715439426990500600,1.44950048828125,0.16995525360107422,0.08338403701782227,-0.17667549848556519
1715439427000506600,1.459506591796875,0.20032596588134766,0.06221413612365723,-0.16382567584514618
1715439427010513000,1.469512939453125,0.15508651733398438,0.06885647773742676,-0.15659305453300476
1715439427020519000,1.479518798828125,0.091888427734375,0.06557726860046387,-0.12114091217517853
1715439427030525000,1.48952490234375,0.053356170654296875,0.08569908142089844,-0.05710756778717041
1715439427040531200,1.49953125,0.039109230041503906,0.09577655792236328,-0.011904947459697723
1715439427050537200,1.509537109375,-0.02657794952392578,0.07233405113220215,-0.0431380569934845
1715439427060543200,1.519543212890625,-0.09117889404296875,0.05869936943054199,-0.07994450628757477
1715439427070549200,1.52954931640625,-0.1172780990600586,0.06491661071777344,-0.05099891871213913
1715439427080555500,1.539555419921875,-0.1338491439819336,0.06269717216491699,0.010640967637300491
1715439427090561500,1.5495615234375,-0.10338783264160156,0.028641223907470703,0.014760125428438187
1715439427100567600,1.559567626953125,-0.05945777893066406,0.009769678115844727,-0.01482422649860382
1715439427110573800,1.56957373046875,-0.02570343017578125,0.024270296096801758,-0.06757859885692596
1715439427120579800,1.579579833984375,-0.03008747100830078,0.0994412899017334,-0.06326040625572205
1715439427130585900,1.5895859375,-0.04368877410888672,0.12587594985961914,-0.04872038960456848
1715439427140592000,1.599592041015625,-0.04736042022705078,0.05680537223815918,-0.04144207015633583
1715439427150598100,1.60959814453125,-0.06964302062988281,0.03076648712158203,-0.0178007110953331
1715439427160604200,1.619604248046875,-0.09154415130615234,0.03341174125671387,-0.03945741802453995
1715439427170610200,1.629610107421875,-0.0802316665649414,0.026988744735717773,-0.06835459172725677
1715439427180616400,1.639616455078125,-0.07857799530029297,0.020866870880126953,-0.09607210755348206
1715439427190622500,1.64962255859375,-0.09101200103759766,-0.013606786727905273,-0.090232253074646
1715439427200628500,1.65962841796875,-0.07015609741210938,-0.05731844902038574,-0.018746361136436462
1715439427210634800,1.669634765625,-0.05889129638671875,-0.0632171630859375,-0.04845936596393585
1715439427220640800,1.679640869140625,-0.10427665710449219,-0.017414093017578125,-0.1558724343776703
1715439427230646800,1.689646728515625,-0.15849781036376953,0.04695463180541992,-0.17065027356147766
1715439427240653000,1.699653076171875,-0.20751571655273438,0.07857155799865723,-0.10242337733507156
1715439427250659000,1.7096591796875,-0.2515249252319336,0.06896209716796875,-0.04517451673746109
1715439427260665000,1.7196650390625,-0.21535873413085938,0.04265236854553223,-0.05476769059896469
1715439427270671400,1.72967138671875,-0.1660919189453125,0.027579069137573242,-0.04075440391898155
1715439427280677400,1.739677490234375,-0.07076263427734375,0.022866010665893555,0.0021281056106090546
1715439427290683400,1.749683349609375,-0.00037097930908203125,0.027060508728027344,0.07444407045841217
1715439427300689400,1.759689453125,0.08340644836425781,0.029808998107910156,0.13361285626888275
1715439427310695700,1.76969580078125,0.1193094253540039,0.021126747131347656,0.1457703858613968
1715439427320701700,1.77970166015625,0.11745738983154297,0.03445839881896973,0.10604353249073029
1715439427330707700,1.789707763671875,0.05001544952392578,0.08424973487854004,0.004947643727064133
1715439427340714000,1.7997138671875,-0.03993415832519531,0.09112691879272461,-0.03319750726222992
1715439427350720000,1.809719970703125,-0.03943061828613281,0.07131242752075195,0.015315661206841469
1715439427360726000,1.81972607421875,0.08778095245361328,0.02495741844177246,-0.06216912716627121
1715439427370732300,1.829732177734375,0.26470088958740234,-0.0018897056579589844,-0.13306088745594025
1715439427380738300,1.83973828125,0.36861610412597656,-0.0019140243530273438,-0.2036876380443573
1715439427390744300,1.849744384765625,0.3398265838623047,0.03757429122924805,-0.18100792169570923
1715439427400750300,1.859750244140625,0.2652721405029297,0.01242375373840332,-0.16018903255462646
1715439427410756600,1.869756591796875,0.25876903533935547,-0.02459239959716797,-0.09678620100021362
1715439427420762600,1.8797626953125,0.11647224426269531,-0.030108928680419922,-0.15225528180599213
1715439427430768600,1.8897685546875,-0.12700939178466797,0.030284881591796875,-0.18528251349925995
1715439427440775000,1.89977490234375,-0.3058290481567383,0.030436038970947266,-0.17167329788208008
1715439427450781000,1.909781005859375,-0.3367347717285156,0.000986337661743164,-0.0776466429233551
1715439427460787000,1.919786865234375,-0.23152446746826172,0.012761116027832031,0.02033526450395584
1715439427470793200,1.929793212890625,-0.18999671936035156,0.04544496536254883,-0.007255237549543381
1715439427480799200,1.93979931640625,-0.21096515655517578,0.07945609092712402,-0.06404130160808563
1715439427490805200,1.94980517578125,-0.13780498504638672,0.1565570831298828,-0.010781053453683853
1715439427500811300,1.959811279296875,-0.13667774200439453,0.13408470153808594,0.06981302052736282
1715439427510817500,1.969817626953125,-0.21567249298095703,0.04626774787902832,0.12652558088302612
1715439427520823600,1.979823486328125,-0.17562198638916016,0.03525662422180176,0.2047114074230194
1715439427530829600,1.98982958984375,-0.1078176498413086,0.05219292640686035,0.16429096460342407
1715439427540835800,1.9998359375,-0.0031824111938476562,0.09621548652648926,0.062278203666210175
1715439427550841900,2.009841796875,0.038659095764160156,0.15784645080566406,-0.10378792881965637
1715439427560848000,2.019847900390625,0.0845174789428711,0.20431900024414062,-0.20699888467788696
1715439427570854100,2.029854248046875,0.12945175170898438,0.23166441917419434,-0.2687690556049347
1715439427580860200,2.039860107421875,0.18762779235839844,0.22126531600952148,-0.24744349718093872
1715439427590866200,2.0498662109375,0.15993976593017578,0.15021085739135742,-0.1868600696325302
1715439427600872400,2.05987255859375,0.1844625473022461,0.13222479820251465,-0.10605265945196152
1715439427610878500,2.06987841796875,0.18056106567382812,0.09491300582885742,0.08046717196702957
1715439427620884500,2.079884521484375,0.2099323272705078,0.04331779479980469,0.15108677744865417
1715439427630890500,2.089890380859375,0.26288414001464844,0.04741525650024414,0.1978614330291748
1715439427640896800,2.099896728515625,0.25919342041015625,0.06791472434997559,0.17887869477272034
1715439427650902800,2.10990283203125,0.2186412811279297,0.08099579811096191,0.13316845893859863
1715439427660908800,2.11990869140625,0.1180887222290039,0.05451226234436035,0.09443271160125732
1715439427670915000,2.1299150390625,-0.013707160949707031,0.037790775299072266,0.052248623222112656
1715439427680921000,2.139921142578125,-0.11071491241455078,0.07433056831359863,0.05781346559524536
1715439427690927000,2.149927001953125,-0.22565460205078125,0.07957792282104492,0.049015678465366364
1715439427700933400,2.159933349609375,-0.29259300231933594,0.07377767562866211,0.02049311250448227
1715439427710939400,2.169939453125,-0.34542179107666016,0.02454543113708496,-0.009409572929143906
1715439427720945400,2.1799453125,-0.34676361083984375,0.00813603401184082,-0.02670218050479889
1715439427730951400,2.189951416015625,-0.29734134674072266,-0.037604331970214844,0.030105041339993477
1715439427740957700,2.199957763671875,-0.160003662109375,-0.06137800216674805,0.024372225627303123
1715439427750963700,2.209963623046875,0.07844352722167969,-0.05109977722167969,0.004722852259874344
1715439427760969700,2.2199697265625,0.35587024688720703,-0.02392745018005371,-0.08885635435581207
1715439427770976000,2.22997607421875,0.4980297088623047,0.008365154266357422,-0.21941672265529633
1715439427780982000,2.23998193359375,0.4791545867919922,0.01664113998413086,-0.265020489692688
1715439427790988000,2.249988037109375,0.41007137298583984,-0.0076291561126708984,-0.20282664895057678
1715439427800994300,2.259994384765625,0.19231510162353516,-0.034268856048583984,-0.1711977869272232
1715439427811000300,2.270000244140625,-0.06394100189208984,-0.04242253303527832,-0.20702426135540009
1715439427821006300,2.28000634765625,-0.2832918167114258,-0.0163877010345459,-0.16689914464950562
1715439427831012600,2.2900126953125,-0.42436981201171875,-0.01194906234741211,-0.1353783756494522
1715439427841018600,2.3000185546875,-0.47451210021972656,0.0047037601470947266,-0.15809546411037445
1715439427851024600,2.310024658203125,-0.4115419387817383,0.09878754615783691,-0.08692066371440887
1715439427861030700,2.32003076171875,-0.2791738510131836,0.2013096809387207,-0.03765137866139412
1715439427871037000,2.330036865234375,-0.1722707748413086,0.23060083389282227,-0.08097491413354874
1715439427881043000,2.34004296875,-0.17984390258789062,0.20200371742248535,-0.16971364617347717
1715439427891049000,2.350049072265625,-0.3378114700317383,0.4467580318450928,-0.40981513261795044
1715439427901055200,2.36005517578125,-0.22455501556396484,0.3009617328643799,-0.3538006842136383
1715439427911061200,2.370061279296875,0.04224109649658203,0.13866662979125977,-0.4549084007740021
1715439427921067300,2.3800673828125,1.1705055236816406,-0.5617294311523438,0.6390092372894287
1715439427931073500,2.390073486328125,1.4979362487792969,-1.0288649797439575,0.9869826436042786
1715439427941079600,2.40007958984375,1.0617752075195312,-0.7012112140655518,0.8059132099151611
1715439427951085600,2.41008544921875,0.6238975524902344,-0.318342924118042,0.38485756516456604
1715439427961091600,2.420091552734375,0.4809751510620117,-0.23453569412231445,0.04652285575866699
1715439427971097900,2.430097900390625,0.4311952590942383,-0.1278822422027588,-0.18147897720336914
1715439427981103900,2.440103759765625,0.3932342529296875,0.028217077255249023,-0.2946670651435852
1715439427991110000,2.45010986328125,0.32460498809814453,0.07717680931091309,-0.36250007152557373
1715439428001116200,2.4601162109375,0.16934871673583984,0.06778502464294434,-0.3208640217781067
1715439428011122200,2.4701220703125,-0.0714712142944336,0.01172494888305664,-0.16186854243278503
1715439428021128200,2.480128173828125,-0.3547353744506836,-0.11610245704650879,0.026751697063446045
1715439428031134500,2.490134521484375,-0.6477241516113281,-0.18892312049865723,0.19171851873397827
1715439428041140500,2.500140380859375,-0.8805561065673828,-0.21883153915405273,0.25689879059791565
1715439428051146500,2.510146484375,-1.054941177368164,-0.16661787033081055,0.18967843055725098
1715439428061152800,2.52015283203125,-1.1203956604003906,-0.08926987648010254,0.11593189835548401
1715439428071158800,2.53015869140625,-1.0127439498901367,0.007681846618652344,0.06589901447296143
1715439428081164800,2.540164794921875,-0.8000469207763672,0.10272216796875,-0.12120082974433899
1715439428091170800,2.5501708984375,-0.5680198669433594,0.21230459213256836,-0.28397834300994873
1715439428101177000,2.560177001953125,-0.3586149215698242,0.2586209774017334,-0.35885611176490784
1715439428111183000,2.57018310546875,-0.2399120330810547,0.26802659034729004,-0.33259594440460205
1715439428121189000,2.580189208984375,-0.21628093719482422,0.24625134468078613,-0.2334914207458496
1715439428131195400,2.5901953125,-0.2541952133178711,0.20850157737731934,-0.18634742498397827
1715439428141201400,2.600201416015625,-0.2868185043334961,0.16019177436828613,-0.14334210753440857
1715439428151207400,2.61020751953125,-0.2857952117919922,0.14030694961547852,-0.05690294876694679
1715439428161213700,2.620213623046875,-0.2849130630493164,0.09238529205322266,0.004821419715881348
1715439428171219700,2.6302197265625,-0.30832767486572266,0.07476019859313965,0.017564430832862854
1715439428181225700,2.640225830078125,-0.32277584075927734,0.08801031112670898,-0.06681906431913376
1715439428191231700,2.650231689453125,-0.29029178619384766,0.14683127403259277,-0.22903046011924744
1715439428201238000,2.660238037109375,-0.1823749542236328,0.21269822120666504,-0.30566802620887756
1715439428211244000,2.670244140625,0.058399200439453125,0.2125413417816162,-0.2867763936519623
1715439428221250000,2.68025,0.27953529357910156,0.1588294506072998,-0.2727646231651306
1715439428231256300,2.69025634765625,0.3813056945800781,0.12211871147155762,-0.20968864858150482
1715439428241262300,2.700262451171875,0.47391223907470703,0.1213231086730957,-0.1164342388510704
1715439428251268400,2.710268310546875,0.5001449584960938,0.07997989654541016,-0.13317085802555084
1715439428261274600,2.720274658203125,0.440948486328125,0.10865974426269531,-0.16574212908744812
1715439428271280600,2.73028076171875,0.30087852478027344,0.2040266990661621,-0.25777843594551086
1715439428281286700,2.74028662109375,0.17991256713867188,0.2958662509918213,-0.348410040140152
1715439428291292700,2.750292724609375,0.044269561767578125,0.3613302707672119,-0.4142908453941345
1715439428301299000,2.760298828125,-0.053725242614746094,0.4012134075164795,-0.40158429741859436
1715439428311305000,2.770304931640625,-0.023303985595703125,0.35756492614746094,-0.28919628262519836
1715439428321311000,2.78031103515625,0.06403255462646484,0.26239752769470215,-0.16590595245361328
1715439428331317200,2.790317138671875,0.14183998107910156,0.16658449172973633,-0.10648804903030396
1715439428341323300,2.8003232421875,0.1627197265625,0.1407930850982666,-0.05271373316645622
1715439428351329300,2.810329345703125,0.16024017333984375,0.15624284744262695,0.0038932375609874725
1715439428361335600,2.82033544921875,0.3588418960571289,0.12650442123413086,-0.12011145055294037
1715439428371341600,2.830341552734375,0.7249126434326172,0.14058804512023926,-0.27660495042800903
1715439428381347600,2.84034765625,0.9766473770141602,0.20687556266784668,-0.3277222514152527
1715439428391353900,2.850353759765625,0.5892534255981445,0.3359184265136719,-0.4457155466079712
1715439428401360000,2.86035986328125,-0.13115310668945312,0.3464980125427246,-0.7423973679542542
1715439428411366000,2.870365966796875,-0.3588829040527344,0.16579294204711914,-0.48543989658355713
1715439428421372000,2.880371826171875,-0.2912864685058594,-0.01950216293334961,0.12833663821220398
1715439428431378200,2.890378173828125,-0.2547950744628906,-0.20326709747314453,0.26631057262420654
1715439428441384200,2.90038427734375,-0.3560171127319336,-0.10897970199584961,0.14043062925338745
1715439428451390200,2.91039013671875,-0.3947792053222656,0.10293388366699219,0.1722671389579773
1715439428461396500,2.920396484375,-0.2397165298461914,0.014280319213867188,0.157033309340477
1715439428471402500,2.930402587890625,-0.08180904388427734,0.004789590835571289,0.2608460485935211
1715439428481408500,2.940408447265625,0.1124105453491211,0.1371934413909912,0.2880968451499939
1715439428491414800,2.950414794921875,0.17303848266601562,0.19183754920959473,0.032852914184331894
1715439428501420800,2.9604208984375,0.15392494201660156,0.18473219871520996,-0.18044766783714294
1715439428511426800,2.9704267578125,0.08886528015136719,0.22217082977294922,-0.29257717728614807
1715439428521432800,2.980432861328125,0.053460121154785156,0.2156229019165039,-0.3421207368373871
1715439428531439000,2.990439208984375,-0.08531761169433594,0.210463285446167,-0.25488972663879395
1715439428541445000,3.000445068359375,-0.17574787139892578,0.17587685585021973,-0.1516929566860199
1715439428551451100,3.010451171875,-0.10588359832763672,0.11313986778259277,-0.1568237692117691
1715439428561457400,3.02045751953125,0.07974052429199219,0.02105093002319336,-0.21821606159210205
1715439428571463400,3.03046337890625,0.15371036529541016,0.0020210742950439453,-0.10289239138364792
1715439428581469400,3.040469482421875,0.3632936477661133,0.04364824295043945,-0.05663926899433136
1715439428591475700,3.050475830078125,0.3725318908691406,0.12411737442016602,-0.09991820156574249
1715439428601481700,3.060481689453125,-0.14519500732421875,0.2156074047088623,-0.24237267673015594
1715439428611487700,3.07048779296875,-0.551300048828125,0.26036739349365234,-0.23718667030334473
1715439428621494000,3.080493896484375,-0.721160888671875,0.2047262191772461,-0.12527033686637878
1715439428631500000,3.0905,-0.5079765319824219,0.0689852237701416,-0.15913830697536469
1715439428641506000,3.100506103515625,-1.444122314453125,-0.0453791618347168,0.36277663707733154
1715439428651512000,3.110511962890625,-1.652937889099121,-0.18762922286987305,0.11834780871868134
1715439428661518300,3.120518310546875,-0.8720359802246094,-0.008181571960449219,-0.44077858328819275
1715439428671524400,3.1305244140625,-0.21344757080078125,0.20023441314697266,-0.2660783529281616
1715439428681530400,3.1405302734375,0.10907554626464844,0.11435294151306152,-0.21111011505126953
1715439428691536600,3.15053662109375,-0.002445220947265625,-0.07255721092224121,-0.06545428931713104
1715439428701542700,3.160542724609375,-0.1077718734741211,-0.25925374031066895,0.15971842408180237
1715439428711548700,3.170548583984375,0.0521087646484375,-0.39905476570129395,0.1735670268535614
1715439428721555000,3.180554931640625,0.39342212677001953,-0.4291667938232422,0.12980177998542786
1715439428731561000,3.19056103515625,1.4560050964355469,-0.5258307456970215,0.03294786810874939
1715439428741567000,3.20056689453125,1.5695409774780273,-0.6312665939331055,0.17171555757522583
1715439428751573000,3.210572998046875,0.6292848587036133,-0.6938401460647583,0.21523436903953552
1715439428761579300,3.220579345703125,0.18810558319091797,-0.6928564310073853,0.026029331609606743
1715439428771585300,3.230585205078125,-0.09526729583740234,-0.7496058940887451,-0.09355702996253967
1715439428781591300,3.24059130859375,-0.12132072448730469,-0.7626564502716064,-0.08723186701536179
1715439428791597600,3.25059765625,0.028507232666015625,-0.6527942419052124,-0.017497703433036804
1715439428801603600,3.260603515625,0.06300640106201172,-0.6036945581436157,0.11285392194986343
1715439428811609600,3.270609619140625,0.1882162094116211,-0.612001895904541,0.17708519101142883
1715439428821615900,3.280615966796875,0.2371530532836914,-0.6074481010437012,0.19968517124652863
1715439428831622000,3.290621826171875,0.3773336410522461,-0.5480241775512695,0.09089275449514389
1715439428841628000,3.3006279296875,0.5086469650268555,-0.407077431678772,-0.15825524926185608
1715439428851634000,3.310634033203125,0.5025339126586914,-0.2865288257598877,-0.3367668390274048
1715439428861640200,3.32064013671875,0.4405670166015625,-0.2150740623474121,-0.3660668730735779
1715439428871646200,3.330646240234375,0.6906442642211914,-0.217057466506958,-0.37586307525634766
1715439428881652200,3.34065234375,0.6552343368530273,-0.25945615768432617,-0.20625677704811096
1715439428891658500,3.350658447265625,0.45900726318359375,-0.3693658113479614,-0.13856098055839539
1715439428901664500,3.36066455078125,0.31670475006103516,-0.5298125743865967,-0.16047167778015137
1715439428911670500,3.37067041015625,0.06997013092041016,-0.5899868011474609,-0.19330689311027527
1715439428921676800,3.3806767578125,0.03377056121826172,-0.724988579750061,-0.1642991602420807
1715439428931682800,3.390682861328125,0.08334732055664062,-0.8916002511978149,-0.2926337718963623
1715439428941688800,3.400688720703125,0.09898948669433594,-0.8985573053359985,-0.351248174905777
1715439428951695000,3.410695068359375,0.09498405456542969,-0.9990487098693848,-0.38533878326416016
1715439428961701000,3.420701171875,0.24798107147216797,-1.111612319946289,-0.21447935700416565
1715439428971707100,3.43070703125,0.31915283203125,-1.2517225742340088,-0.40404176712036133
1715439428981713200,3.440713134765625,0.3277130126953125,-1.136954665184021,-0.39291322231292725
1715439428991719400,3.450719482421875,0.3504467010498047,-1.1935890913009644,-0.4370671510696411
1715439429001725400,3.460725341796875,0.4354429244995117,-1.2219295501708984,-0.4052979052066803
1715439429011731500,3.4707314453125,0.36776256561279297,-1.2606663703918457,-0.5661158561706543
1715439429021737700,3.48073779296875,-0.40308094024658203,-1.5073320865631104,-0.5770838260650635
1715439429031743700,3.49074365234375,-0.00508880615234375,-1.2536349296569824,0.058643341064453125
1715439429041749800,3.500749755859375,0.2570009231567383,-1.3498923778533936,-0.10056602954864502
1715439429051756000,3.510756103515625,0.2455911636352539,-1.4350199699401855,-0.3413582444190979
1715439429061762000,3.520761962890625,-0.05804443359375,-1.2109313011169434,-0.12304529547691345
1715439429071768000,3.53076806640625,0.05001068115234375,-1.073941946029663,0.07466582953929901
1715439429081774000,3.540774169921875,0.3741111755371094,-1.07206392288208,-0.020278513431549072
1715439429091780400,3.5507802734375,0.6996536254882812,-0.9989174604415894,-0.06165891885757446
1715439429101786400,3.560786376953125,0.9601955413818359,-0.8568193912506104,-0.04454877972602844
1715439429111792400,3.57079248046875,1.237569808959961,-0.7962846755981445,-0.20833280682563782
1715439429121798700,3.580798583984375,1.2073554992675781,-0.6942163705825806,-0.30048519372940063
1715439429131804700,3.5908046875,0.7985610961914062,-0.5636929273605347,-0.2615843117237091
1715439429141810700,3.600810791015625,0.2552366256713867,-0.4782683849334717,-0.2419123351573944
1715439429151817000,3.61081689453125,-0.27507972717285156,-0.4285801649093628,-0.160562664270401
1715439429161823000,3.620822998046875,-0.6741828918457031,-0.35704874992370605,-0.12449675798416138
1715439429171829200,3.630829345703125,-1.0582466125488281,-0.26831603050231934,-0.15751460194587708
1715439429181835300,3.640835205078125,-1.3571767807006836,-0.10441112518310547,-0.15489721298217773
1715439429191841500,3.650841552734375,-1.3764171600341797,-0.1584181785583496,0.7760004997253418
1715439429201847600,3.66084765625,-1.2259750366210938,-0.6219152212142944,0.8427067995071411
1715439429211853800,3.670853759765625,-0.9963216781616211,-0.6367422342300415,0.20836195349693298
1715439429221859800,3.68085986328125,-0.764164924621582,0.3577847480773926,-0.6438429355621338
1715439429231866000,3.6908662109375,-0.9561862945556641,4.443392753601074,-5.095021724700928
1715439429241872100,3.7008720703125,-1.1218395233154297,7.717136383056641,-7.193715572357178
1715439429251878400,3.71087841796875,1.0979204177856445,6.370731353759766,-1.494079351425171
1715439429261884400,3.720884521484375,2.66367244720459,3.8084230422973633,2.295341730117798
1715439429271890700,3.730890625,1.8495244979858398,2.8193459510803223,2.4818553924560547
1715439429281896700,3.740896728515625,0.30394935607910156,2.850818395614624,1.8781964778900146
1715439429291903000,3.750903076171875,0.36188793182373047,2.808673143386841,1.858752727508545
1715439429301909000,3.760908935546875,0.2777109146118164,1.9893500804901123,2.024517297744751
1715439429311915300,3.770915283203125,-0.07700538635253906,0.7002971172332764,1.433170199394226
1715439429321921300,3.78092138671875,0.009539604187011719,-0.10544824600219727,0.10772830992937088
1715439429331927600,3.790927490234375,0.1727285385131836,-0.02682948112487793,-0.7611079216003418
1715439429341933600,3.80093359375,-0.06551265716552734,0.6768665313720703,-0.8177109956741333
1715439429351939800,3.81093994140625,-0.6238794326782227,0.9665098190307617,0.033070094883441925
1715439429361945900,3.82094580078125,-0.976933479309082,1.1561636924743652,0.6075308322906494
1715439429371952000,3.8309521484375,-1.1779813766479492,1.1223788261413574,0.747497022151947
1715439429381958100,3.840958251953125,-1.5000734329223633,0.8858773708343506,0.6601874232292175
1715439429391964400,3.85096435546875,-1.7191171646118164,0.5924010276794434,0.4434060752391815
1715439429401970400,3.860970458984375,-1.8789467811584473,0.344146728515625,0.1900903731584549
1715439429411976700,3.870976806640625,-1.8320155143737793,0.22814297676086426,-0.014465365558862686
1715439429421982700,3.880982666015625,-1.439889907836914,0.23799371719360352,-0.19021980464458466
1715439429431989000,3.890989013671875,-0.8740320205688477,0.19250869750976562,-0.09739257395267487
1715439429441995000,3.9009951171875,-0.3487434387207031,0.2030792236328125,-0.015759728848934174
1715439429452001300,3.911001220703125,0.1417255401611328,0.36240315437316895,0.008824147284030914
1715439429462007300,3.92100732421875,0.18234634399414062,0.4825327396392822,0.014047369360923767
1715439429472013600,3.931013671875,0.07489204406738281,0.5310261249542236,0.07747193425893784
1715439429482019600,3.94101953125,0.20215797424316406,0.526054859161377,0.19327948987483978
1715439429492025600,3.951025634765625,0.43016719818115234,0.5428667068481445,0.08888587355613708
1715439429502032000,3.961031982421875,0.6825275421142578,0.5516633987426758,-0.12106428295373917
1715439429512038000,3.971037841796875,0.9596223831176758,0.5077786445617676,-0.2415854036808014
1715439429522044000,3.9810439453125,1.1518745422363281,0.46724390983581543,-0.3302208185195923
1715439429532050200,3.99105029296875,1.0924005508422852,0.4152216911315918,-0.38579872250556946
1715439429542056200,4.00105615234375,0.9007911682128906,0.3722572326660156,-0.33946335315704346
1715439429552062200,4.011062255859375,0.7108173370361328,0.38231372833251953,-0.2628183960914612
1715439429562068500,4.021068359375,0.40262508392333984,0.42297887802124023,-0.23691973090171814
1715439429572074500,4.031074462890625,0.1432037353515625,0.4529910087585449,-0.2572019100189209
1715439429582080500,4.04108056640625,0.0613250732421875,0.45844244956970215,-0.2918192744255066
1715439429592086500,4.05108642578125,-0.07751750946044922,0.42983460426330566,-0.33997511863708496
1715439429602092800,4.0610927734375,-0.17792797088623047,0.3587203025817871,-0.4014654755592346
1715439429612098800,4.071098876953125,-0.2592496871948242,0.3222367763519287,-0.40544384717941284
1715439429622104800,4.081104736328125,-0.34079647064208984,0.34000062942504883,-0.3422214984893799
1715439429632111000,4.091111083984375,-0.22669029235839844,0.3878779411315918,-0.3271489441394806
1715439429642117000,4.1011171875,-0.17994022369384766,0.4173266887664795,-0.30739185214042664
1715439429652123100,4.111123046875,-0.15734291076660156,0.4186360836029053,-0.29706448316574097
1715439429662129400,4.12112939453125,-0.13498592376708984,0.3728828430175781,-0.2960479259490967
1715439429672135400,4.131135498046875,-0.15117168426513672,0.2948145866394043,-0.30856627225875854
1715439429682141400,4.141141357421875,-0.07677745819091797,0.23686671257019043,-0.30636098980903625
1715439429692147700,4.151147705078125,0.059494972229003906,0.2556126117706299,-0.3707718253135681
1715439429702153700,4.16115380859375,0.1095113754272461,0.25504183769226074,-0.3301859200000763
1715439429712159700,4.17115966796875,0.2647285461425781,0.258364200592041,-0.2326999306678772
1715439429722165800,4.181165771484375,0.35796451568603516,0.2358992099761963,-0.23127394914627075
1715439429732172000,4.191172119140625,0.3750190734863281,0.18284249305725098,-0.26681026816368103
1715439429742178000,4.201177978515625,0.4117116928100586,0.14673137664794922,-0.17772358655929565
1715439429752184000,4.21118408203125,0.3485746383666992,0.1561436653137207,-0.030658766627311707
1715439429762190300,4.2211904296875,0.1761007308959961,0.21654272079467773,-0.06940712034702301
1715439429772196400,4.2311962890625,0.004132270812988281,0.2382822036743164,-0.11756077408790588
1715439429782202400,4.241202392578125,-0.07675361633300781,0.20783638954162598,-0.07499302923679352
1715439429792208600,4.251208740234375,-0.13380050659179688,0.19748997688293457,-0.08464398980140686
1715439429802214700,4.261214599609375,-0.12406635284423828,0.20720815658569336,-0.15179336071014404
1715439429812220700,4.271220703125,0.00031757354736328125,0.2026052474975586,-0.15827643871307373
1715439429822226700,4.281226806640625,0.09121227264404297,0.0969090461730957,-0.15220752358436584
1715439429832233000,4.29123291015625,0.1630849838256836,0.02880072593688965,-0.25871556997299194
1715439429842239000,4.301239013671875,0.04861736297607422,0.09921431541442871,-0.34817928075790405
1715439429852245000,4.311244873046875,-0.0561370849609375,0.15587830543518066,-0.38667750358581543
1715439429862251300,4.321251220703125,-0.04605388641357422,0.036104679107666016,-0.3068835139274597
1715439429872257300,4.33125732421875,-0.06939506530761719,-0.09779691696166992,-0.29405754804611206
1715439429882263300,4.34126318359375,-0.08796215057373047,-0.0399937629699707,-0.32440313696861267
1715439429892269600,4.35126953125,-0.08152961730957031,0.08373880386352539,-0.29746776819229126
1715439429902275600,4.361275634765625,-0.06119251251220703,0.20572447776794434,-0.28872162103652954
1715439429912281600,4.371281494140625,-0.06018352508544922,0.36839938163757324,-0.2688198387622833
1715439429922287900,4.381287841796875,-0.012264251708984375,0.3544790744781494,-0.21433158218860626
1715439429932294000,4.3912939453125,0.011250495910644531,0.1949326992034912,-0.20218738913536072
1715439429942300000,4.4012998046875,-0.0032987594604492188,0.14163565635681152,-0.22310738265514374
1715439429952306000,4.411305908203125,0.05753803253173828,0.1417224407196045,-0.22918078303337097
1715439429962312200,4.421312255859375,0.1927042007446289,0.1042318344116211,-0.23118972778320312
1715439429972318200,4.431318115234375,0.2317047119140625,0.09000372886657715,-0.2432040274143219
1715439429982324200,4.44132421875,0.1620311737060547,0.1267099380493164,-0.20300127565860748
1715439429992330500,4.45133056640625,0.02302265167236328,0.1620807647705078,-0.12913699448108673
1715439430002336500,4.46133642578125,-0.10440349578857422,0.17358684539794922,-0.12032866477966309
1715439430012342500,4.471342529296875,-0.1074676513671875,0.15721535682678223,-0.07299768924713135
1715439430022348800,4.481348876953125,-0.11063289642333984,0.1415865421295166,-0.039805084466934204
1715439430032354800,4.491354736328125,-0.17054271697998047,0.15064096450805664,0.018072396516799927
1715439430042360800,4.50136083984375,-0.2958831787109375,0.17073631286621094,0.033904433250427246
1715439430052366800,4.511366943359375,-0.35389041900634766,0.17894816398620605,-0.0208074152469635
1715439430062373000,4.521373046875,-0.30803966522216797,0.1945056915283203,-0.051312386989593506
1715439430072379100,4.531379150390625,-0.15514469146728516,0.20708107948303223,-0.1145675778388977
1715439430082385200,4.54138525390625,0.07982826232910156,0.21085262298583984,-0.17392703890800476
1715439430092391400,4.551391357421875,0.27826595306396484,0.20890522003173828,-0.2157290130853653
1715439430102397400,4.5613974609375,0.37511539459228516,0.20486974716186523,-0.2723585367202759
1715439430112403500,4.571403564453125,0.3486347198486328,0.0993959903717041,-0.2160138040781021
1715439430122409700,4.58140966796875,0.16298675537109375,0.04559731483459473,-0.1513664871454239
1715439430132415700,4.591415771484375,0.008800506591796875,0.0910642147064209,-0.11093932390213013
1715439430142421800,4.601421875,0.04076099395751953,0.11230850219726562,-0.09838840365409851
1715439430152427800,4.611427734375,0.0910043716430664,0.06705641746520996,-0.0982256829738617
1715439430162434000,4.62143408203125,0.0461578369140625,0.03196454048156738,-0.16652289032936096
1715439430172440000,4.631440185546875,0.053798675537109375,0.044638633728027344,-0.12926752865314484
1715439430182446000,4.641446044921875,0.1178884506225586,0.04736471176147461,-0.09240683913230896
1715439430192452400,4.651452392578125,0.11040782928466797,0.035401105880737305,-0.1266632080078125
1715439430202458400,4.661458251953125,0.06546783447265625,-0.00011730194091796875,-0.13762857019901276
1715439430212464400,4.67146435546875,0.01658344268798828,-0.00661468505859375,-0.05107879638671875
1715439430222470700,4.681470703125,-0.007979393005371094,0.0013737678527832031,0.04747858643531799
1715439430232476700,4.6914765625,0.014932632446289062,-0.0048558712005615234,0.08347874879837036
1715439430242482700,4.701482666015625,0.05170631408691406,-0.002116680145263672,0.04408764839172363
1715439430252489000,4.711489013671875,0.05977439880371094,0.0139617919921875,-0.01281002163887024
1715439430262495000,4.721494873046875,0.06318473815917969,0.04768514633178711,-0.06761178374290466
1715439430272501000,4.7315009765625,0.010128021240234375,0.033154964447021484,-0.10582514107227325
1715439430282507000,4.741507080078125,-0.11278629302978516,0.0474247932434082,-0.16586934030056
1715439430292513300,4.75151318359375,-0.2527341842651367,0.07669568061828613,-0.1879187375307083
1715439430302519300,4.761519287109375,-0.33895111083984375,0.08835244178771973,-0.20093387365341187
1715439430312525300,4.771525390625,-0.37717533111572266,0.06917643547058105,-0.20548862218856812
1715439430322531600,4.781531494140625,-0.33996009826660156,0.052735328674316406,-0.2021978497505188
1715439430332537600,4.79153759765625,-0.2850055694580078,0.02465224266052246,-0.21020041406154633
1715439430342543600,4.801543701171875,-0.19367027282714844,-0.001241445541381836,-0.2521248161792755
1715439430352550000,4.8115498046875,0.004261016845703125,0.011903524398803711,-0.2707987427711487
1715439430362556000,4.821555908203125,0.20843219757080078,0.07625961303710938,-0.22365927696228027
1715439430372562200,4.831562255859375,0.216400146484375,0.15259885787963867,-0.19548675417900085
1715439430382568200,4.841568115234375,0.19148540496826172,0.17489933967590332,-0.20910625159740448
1715439430392574500,4.851574462890625,0.16244125366210938,0.17720675468444824,-0.16975156962871552
1715439430402580700,4.861580810546875,0.1151266098022461,0.16957664489746094,-0.106203094124794
1715439430412586800,4.871586669921875,0.11110973358154297,0.1897282600402832,-0.08088015019893646
1715439430422593000,4.881593017578125,0.17333507537841797,0.18500256538391113,-0.12229841947555542
1715439430432599000,4.89159912109375,0.18785476684570312,0.12686800956726074,-0.11167848110198975
1715439430442605300,4.901605224609375,0.15543270111083984,0.08233046531677246,-0.11628609895706177
1715439430452611300,4.911611328125,0.12859725952148438,0.042058706283569336,-0.13666434586048126
1715439430462617600,4.92161767578125,0.12609100341796875,0.06249809265136719,-0.20570571720600128
1715439430472623600,4.93162353515625,0.03905487060546875,0.04898667335510254,-0.19911399483680725
1715439430482630000,4.9416298828125,-0.08891010284423828,0.04045820236206055,-0.1787351816892624
1715439430492636000,4.951635986328125,-0.1631307601928711,0.0422210693359375,-0.1253202259540558
1715439430502642200,4.96164208984375,-0.19870281219482422,0.08734798431396484,-0.09099532663822174
1715439430512648200,4.971648193359375,-0.16805648803710938,0.1329212188720703,-0.05669102072715759
1715439430522654500,4.981654541015625,-0.09577655792236328,0.15987706184387207,-0.018059372901916504
1715439430532660500,4.991660400390625,-0.0767202377319336,0.12131190299987793,0.039640843868255615
1715439430542666800,5.001666748046875,-0.10067081451416016,0.13164091110229492,0.031721264123916626
1715439430552672800,5.0116728515625,-0.11516666412353516,0.16681337356567383,0.0152302086353302
1715439430562679000,5.021678955078125,-0.05438423156738281,0.127244234085083,0.009375244379043579
1715439430572685000,5.03168505859375,0.014819145202636719,0.0742032527923584,-0.02478519082069397
1715439430582691300,5.04169140625,0.08775711059570312,0.035584449768066406,-0.04992800951004028
1715439430592697300,5.051697265625,0.15975570678710938,-0.008172988891601562,-0.09404528141021729
1715439430602703600,5.06170361328125,0.24496841430664062,0.05594468116760254,-0.09554460644721985
1715439430612709600,5.071709716796875,0.2867908477783203,0.22101879119873047,-0.02291122078895569
1715439430622716000,5.0817158203125,0.21995925903320312,0.40079784393310547,-0.02746570110321045
1715439430632722000,5.091721923828125,0.060248374938964844,0.41678619384765625,-0.004176139831542969
1715439430642728200,5.101728271484375,-0.08743572235107422,0.20677852630615234,-0.11338374018669128
1715439430652734200,5.111734130859375,-0.19046592712402344,0.03392529487609863,-0.17762061953544617
1715439430662740500,5.121740478515625,-0.23561954498291016,0.006517887115478516,-0.21593302488327026
1715439430672746500,5.13174658203125,-0.07785511016845703,-0.0239412784576416,-0.1867544800043106
1715439430682752800,5.141752685546875,0.11017990112304688,-0.06792616844177246,-0.152197927236557
1715439430692758800,5.1517587890625,0.29531192779541016,-0.022710561752319336,-0.11825752258300781
1715439430702765000,5.16176513671875,0.369476318359375,0.10939168930053711,-0.009653151035308838
1715439430712771000,5.17177099609375,0.3628826141357422,0.15206623077392578,0.0555034875869751
1715439430722777000,5.181777099609375,0.28157615661621094,0.1585862636566162,0.054639220237731934
1715439430732783400,5.191783447265625,0.17851924896240234,0.14408397674560547,0.04503363370895386
1715439430742789400,5.201789306640625,0.07749652862548828,0.12356233596801758,0.012875378131866455
1715439430752795400,5.21179541015625,-0.0029239654541015625,0.10286664962768555,0.005670815706253052
1715439430762801700,5.2218017578125,-0.058510780334472656,0.08261752128601074,-0.05240148305892944
1715439430772807700,5.2318076171875,-0.08038997650146484,0.08707571029663086,-0.0907854437828064
1715439430782813700,5.241813720703125,-0.1351299285888672,0.09268474578857422,-0.11459635198116302
1715439430792819700,5.25181982421875,-0.1327676773071289,0.024288654327392578,-0.08640873432159424
1715439430802826000,5.261825927734375,-0.1542034149169922,0.03328394889831543,-0.0584351122379303
1715439430812832000,5.27183203125,-0.1378011703491211,0.024010419845581055,-0.02077421545982361
1715439430822838000,5.281838134765625,-0.07469844818115234,-0.059954166412353516,-0.03546789288520813
1715439430832844300,5.29184423828125,-0.07860946655273438,-0.01980137825012207,-0.05528450012207031
1715439430842850300,5.301850341796875,-0.0872650146484375,0.015476703643798828,-0.0891987532377243
1715439430852856300,5.311856201171875,-0.11003684997558594,0.0366513729095459,-0.1178847998380661
1715439430862862600,5.321862548828125,-0.1514301300048828,-0.007635593414306641,-0.09003771841526031
1715439430872868600,5.33186865234375,-0.13586711883544922,-0.021834135055541992,-0.044076889753341675
1715439430882874600,5.34187451171875,-0.07367515563964844,0.02159857749938965,-0.04126930236816406
1715439430892880600,5.351880615234375,0.1333942413330078,0.04086160659790039,-0.03747949004173279
1715439430902887000,5.361886962890625,0.33257007598876953,0.015918254852294922,0.001523733139038086
1715439430912893000,5.371892822265625,0.45825767517089844,0.02184462547302246,0.010277658700942993
1715439430922899000,5.38189892578125,0.48359012603759766,0.01983928680419922,0.05938458442687988
1715439430932905200,5.3919052734375,0.45729827880859375,0.0385594367980957,0.09555301070213318
1715439430942911200,5.4019111328125,0.4226198196411133,0.04018568992614746,0.037788450717926025
1715439430952917200,5.411917236328125,0.30434226989746094,0.011087179183959961,-0.052007198333740234
1715439430962923500,5.421923583984375,0.19320297241210938,-0.023952960968017578,-0.1276896595954895
1715439430972929500,5.431929443359375,0.060760498046875,-0.04088234901428223,-0.16691003739833832
1715439430982935600,5.441935546875,-0.017477989196777344,-0.020349979400634766,-0.24107813835144043
1715439430992941800,5.45194189453125,-0.08962726593017578,-0.00013494491577148438,-0.2978099286556244
1715439431002947800,5.46194775390625,-0.10410690307617188,0.010754108428955078,-0.2990216016769409
1715439431012953900,5.471953857421875,-0.15605640411376953,-0.0016620159149169922,-0.2501530945301056
1715439431022959900,5.4819599609375,-0.2544975280761719,-0.007844924926757812,-0.22665303945541382
1715439431032966100,5.491966064453125,-0.35175132751464844,0.03989076614379883,-0.2134438008069992
1715439431042972200,5.50197216796875,-0.37255096435546875,0.07492589950561523,-0.21526280045509338
1715439431052978200,5.511978271484375,-0.3229045867919922,0.09757065773010254,-0.17537884414196014
1715439431062984400,5.521984375,-0.26506805419921875,0.09330034255981445,-0.11294201016426086
1715439431072990500,5.531990478515625,-0.18971633911132812,0.06706905364990234,-0.042353227734565735
1715439431082996500,5.54199658203125,-0.13001346588134766,0.047089338302612305,-0.06220293045043945
1715439431093002800,5.552002685546875,-0.1468667984008789,0.06602096557617188,-0.07668311893939972
1715439431103008800,5.5620087890625,-0.154296875,0.062198638916015625,-0.0008557885885238647
1715439431113014800,5.572014892578125,-0.18545818328857422,0.06444644927978516,0.05506996810436249
1715439431123020800,5.582020751953125,-0.16934871673583984,0.030382871627807617,0.01130320131778717
1715439431133027000,5.592027099609375,-0.13959217071533203,0.016618967056274414,0.020032107830047607
1715439431143033000,5.602033203125,-0.0963735580444336,0.003782510757446289,0.019446909427642822
1715439431153039000,5.6120390625,-0.06338882446289062,0.015100717544555664,0.009802892804145813
1715439431163045400,5.62204541015625,0.006682395935058594,0.0404512882232666,-0.022449880838394165
1715439431173051400,5.632051513671875,0.08038711547851562,0.08380436897277832,0.012174367904663086
1715439431183057400,5.642057373046875,0.12007427215576172,0.08335280418395996,-0.09038113057613373
1715439431193063700,5.652063720703125,0.11218833923339844,0.07279086112976074,-0.01270262897014618
1715439431203069700,5.662069580078125,0.0951375961303711,0.0006868839263916016,0.002439245581626892
1715439431213075700,5.67207568359375,0.050093650817871094,0.04288959503173828,-0.03882652521133423
1715439431223082000,5.68208203125,0.09998512268066406,0.1735522747039795,0.2018200308084488
1715439431233088000,5.692087890625,0.04089641571044922,0.04746699333190918,-0.09806938469409943
1715439431243094000,5.702093994140625,-0.0738058090209961,-0.06200981140136719,-0.04402031749486923
1715439431253100000,5.71210009765625,0.07254409790039062,-0.02911996841430664,-0.03789716213941574
1715439431263106300,5.722106201171875,0.1461315155029297,0.15720367431640625,0.021154865622520447
1715439431273112300,5.7321123046875,-0.19114112854003906,-0.07862520217895508,-0.05846443027257919
1715439431283118300,5.742118408203125,-0.10409355163574219,0.16193890571594238,-0.08517228811979294
1715439431293124600,5.75212451171875,0.10393238067626953,0.3561112880706787,0.0437161922454834
1715439431303130600,5.762130615234375,0.17692089080810547,0.10794329643249512,-0.12570440769195557
1715439431313136600,5.77213671875,-0.09506034851074219,-0.008633136749267578,-0.30471518635749817
1715439431323143000,5.782142822265625,0.051779747009277344,0.11246228218078613,-0.16532115638256073
1715439431333149000,5.79214892578125,0.2057962417602539,0.24946212768554688,0.04267197847366333
1715439431343155000,5.802155029296875,0.07971382141113281,-0.059624433517456055,-0.2518973648548126
1715439431353161000,5.812160888671875,-0.048956871032714844,-0.04334878921508789,-0.2229531854391098
1715439431363167200,5.822167236328125,0.07415103912353516,0.08056282997131348,-0.10901561379432678
1715439431373173200,5.83217333984375,-0.03075122833251953,0.13639545440673828,-0.022526815533638
1715439431383179500,5.842179443359375,-0.10573768615722656,0.13980340957641602,0.10592828691005707
1715439431393185500,5.852185546875,0.027754783630371094,0.23702120780944824,0.14403440058231354
1715439431403191800,5.86219189453125,-0.12338924407958984,-0.04436516761779785,-0.15949705243110657
1715439431413198000,5.872197998046875,-0.13091087341308594,0.027972936630249023,-0.056762032210826874
1715439431423204000,5.8822041015625,-0.01129913330078125,0.019458532333374023,-0.08582150191068649
1715439431433210400,5.89221044921875,-0.15751075744628906,0.021101713180541992,-0.0573204830288887
1715439431443216400,5.90221630859375,-0.27341651916503906,0.04785776138305664,-0.05197034031152725
1715439431453222700,5.91222265625,-0.24187946319580078,0.06674885749816895,-0.032723382115364075
1715439431463228700,5.922228759765625,-0.21596145629882812,0.05877280235290527,-0.013983920216560364
1715439431473235000,5.93223486328125,-0.10601520538330078,0.052229881286621094,-0.004905998706817627
1715439431483241000,5.942240966796875,0.00678253173828125,0.10240340232849121,-0.03319293260574341
1715439431493247200,5.952247314453125,0.042496681213378906,0.05706429481506348,-0.00045646727085113525
1715439431503253200,5.962253173828125,0.08718204498291016,0.049527645111083984,0.06464159488677979
1715439431513259500,5.972259521484375,0.22081947326660156,0.0740668773651123,-0.1256445050239563
1715439431523265500,5.982265625,0.19250011444091797,0.11543154716491699,-0.10547275841236115
1715439431533271800,5.992271728515625,0.09425067901611328,0.08917784690856934,-0.1373879313468933
1715439431543277800,6.00227783203125,0.049498558044433594,0.020693063735961914,-0.20635271072387695
1715439431553284000,6.0122841796875,-0.03217506408691406,0.00045299530029296875,-0.2084522247314453
1715439431563290000,6.0222900390625,-0.05136394500732422,0.03275704383850098,-0.10243339836597443
1715439431573296400,6.03229638671875,-0.04673004150390625,0.0177459716796875,-0.2021528035402298
1715439431583302400,6.042302490234375,-0.1270427703857422,0.02713465690612793,-0.04707763344049454
1715439431593308700,6.05230859375,-0.07429885864257812,0.08404970169067383,0.02024395763874054
1715439431603314700,6.062314697265625,-0.0224151611328125,0.11646699905395508,0.015074968338012695
1715439431613321000,6.072321044921875,0.07575702667236328,0.13390803337097168,0.03392583131790161
1715439431623327000,6.082326904296875,0.21021175384521484,0.22518682479858398,0.020609572529792786
1715439431633333200,6.092333251953125,0.08845901489257812,-0.0489199161529541,-0.0823414996266365
1715439431643339300,6.10233935546875,-0.02187347412109375,-0.012407302856445312,-0.08790489286184311
1715439431653345500,6.112345458984375,0.08621978759765625,-0.0000400543212890625,-0.10235577076673508
1715439431663351600,6.1223515625,-0.09943866729736328,0.007413148880004883,-0.021486759185791016
1715439431673357800,6.13235791015625,-0.09858417510986328,0.029775142669677734,-0.181196391582489
1715439431683363800,6.14236376953125,-0.08373451232910156,0.052371978759765625,-0.0659753605723381
1715439431693370000,6.1523701171875,-0.07867431640625,0.04212689399719238,-0.017678096890449524
1715439431703376100,6.162376220703125,-0.06434345245361328,0.07943511009216309,-0.07381045818328857
1715439431713382400,6.17238232421875,-0.08328628540039062,0.0647268295288086,-0.09660928696393967
1715439431723388400,6.182388427734375,-0.13975238800048828,0.07470703125,-0.059041135013103485
1715439431733394700,6.192394775390625,-0.054207801818847656,0.03833770751953125,-0.19647659361362457
1715439431743400700,6.202400634765625,-0.007826805114746094,0.07833003997802734,-0.25243669748306274
1715439431753407000,6.212406982421875,-0.12715530395507812,0.09012746810913086,-0.1575707495212555
1715439431763413000,6.2224130859375,-0.08929157257080078,0.01789999008178711,-0.21558251976966858
1715439431773419300,6.232419189453125,-0.06628894805908203,-0.04318428039550781,-0.046507328748703
1715439431783425300,6.24242529296875,-0.034361839294433594,-0.018085002899169922,-0.04800792038440704
1715439431793431300,6.252431396484375,0.04878997802734375,0.0208280086517334,-0.015152990818023682
1715439431803437600,6.2624375,0.13538265228271484,0.06319499015808105,-0.07125652581453323
1715439431813443600,6.272443603515625,0.1312417984008789,0.1134634017944336,-0.008343040943145752
1715439431823449600,6.28244970703125,0.13675785064697266,0.1479480266571045,0.006807148456573486
1715439431833455900,6.292455810546875,0.22252845764160156,0.17100977897644043,0.01710560917854309
1715439431843462000,6.3024619140625,0.151885986328125,-0.11389660835266113,-0.12285543978214264
1715439431853468000,6.312468017578125,0.20050716400146484,-0.00006270408630371094,-0.15948212146759033
1715439431863474000,6.322473876953125,0.37581920623779297,0.04960203170776367,-0.08020006865262985
1715439431873480200,6.332480224609375,-0.09178638458251953,-0.09602797031402588,-0.05700036883354187
1715439431883486200,6.342486328125,0.15924835205078125,0.05750453472137451,0.09017427265644073
1715439431893492200,6.3524921875,0.072113037109375,-0.1604151725769043,-0.09858575463294983
1715439431903498500,6.36249853515625,-0.09358978271484375,-0.04571664333343506,-0.10566584765911102
1715439431913504500,6.37250439453125,-0.09194755554199219,-0.007254600524902344,-0.10280491411685944
1715439431923510500,6.382510498046875,-0.11881637573242188,0.14919257164001465,-0.0981685221195221
1715439431933516800,6.392516845703125,-0.38101863861083984,0.2430475950241089,0.15528453886508942
1715439431943522800,6.402522705078125,-0.24393939971923828,0.16969513893127441,-0.21047064661979675
1715439431953528800,6.41252880859375,-0.057456016540527344,0.051003336906433105,-0.25932493805885315
1715439431963535000,6.42253515625,-0.3028841018676758,0.025301694869995117,-0.20341716706752777
1715439431973541000,6.432541015625,-0.03134727478027344,0.015855073928833008,-0.11464552581310272
1715439431983547100,6.442547119140625,0.17469215393066406,-0.017911195755004883,-0.10891181230545044
1715439431993553200,6.45255322265625,0.11391353607177734,-0.02888774871826172,-0.11346089839935303
1715439432003559400,6.462559326171875,0.09673213958740234,-0.04057586193084717,-0.12796077132225037
1715439432013565400,6.4725654296875,0.1883373260498047,0.026975154876708984,-0.08547402918338776
1715439432023571500,6.482571533203125,0.28812408447265625,0.054004549980163574,-0.008549422025680542
1715439432033577700,6.49257763671875,0.3254718780517578,0.04529225826263428,0.06361865997314453
1715439432043583700,6.502583740234375,0.2730903625488281,0.03941023349761963,0.0374051034450531
1715439432053589800,6.51258984375,0.25482654571533203,0.03672325611114502,0.017675280570983887
1715439432063596000,6.522595947265625,0.1948070526123047,0.03227353096008301,-0.03781215846538544
1715439432073602000,6.53260205078125,-0.028840065002441406,0.04110872745513916,-0.04949060082435608
1715439432083608000,6.542608154296875,-0.20186996459960938,-0.005694270133972168,-0.07057574391365051
1715439432093614000,6.552614013671875,-0.1887359619140625,0.01602458953857422,-0.08225871622562408
1715439432103620400,6.562620361328125,-0.12897300720214844,0.010445594787597656,-0.10415881872177124
1715439432113626400,6.57262646484375,-0.018439292907714844,0.11786961555480957,-0.010903790593147278
1715439432123632400,6.58263232421875,-0.10272407531738281,-0.04034876823425293,-0.04319123923778534
1715439432133638700,6.592638671875,-0.0114898681640625,-0.05407214164733887,-0.023794278502464294
1715439432143644700,6.602644775390625,0.04522895812988281,0.026690006256103516,0.005326598882675171
1715439432153650700,6.612650634765625,0.020994186401367188,0.06811141967773438,0.020912498235702515
1715439432163657000,6.622656982421875,-0.0027360916137695312,0.09418797492980957,0.07417264580726624
1715439432173663000,6.6326630859375,-0.026044845581054688,0.05850076675415039,0.04641920328140259
1715439432183669000,6.6426689453125,0.04055595397949219,0.13590002059936523,0.08683338761329651
1715439432193675300,6.65267529296875,-0.0115814208984375,-0.014484167098999023,-0.0801006555557251
1715439432203681300,6.662681396484375,-0.0063457489013671875,-0.025589466094970703,-0.0670117437839508
1715439432213687300,6.672687255859375,0.04122352600097656,0.08590579032897949,-0.013425171375274658
1715439432223693300,6.682693359375,-0.00130462646484375,0.09123635292053223,-0.008262932300567627
1715439432233699600,6.692699462890625,0.04166126251220703,0.1103963851928711,0.006778120994567871
1715439432243705600,6.70270556640625,0.12638092041015625,0.11921381950378418,0.008739054203033447
1715439432253711600,6.712711669921875,0.10625934600830078,0.1033318042755127,-0.006080344319343567
1715439432263718000,6.7227177734375,0.06767940521240234,0.068381667137146,-0.05085842311382294
1715439432273724000,6.732723876953125,0.06269454956054688,0.03862929344177246,-0.09325150400400162
1715439432283730000,6.74272998046875,0.12385082244873047,0.01808023452758789,-0.11982058733701706
1715439432293736200,6.752736083984375,0.08992290496826172,0.03043508529663086,-0.17460863292217255
1715439432303742200,6.7627421875,0.09906578063964844,0.0657341480255127,-0.1735711544752121
1715439432313748200,6.772748291015625,0.01896953582763672,0.12235045433044434,-0.13587266206741333
1715439432323754200,6.782754150390625,-0.04541492462158203,0.12530207633972168,-0.1057988852262497
1715439432333760500,6.792760498046875,-0.10400009155273438,0.08602595329284668,-0.08361099660396576
1715439432343766500,6.8027666015625,-0.11934566497802734,0.07166504859924316,-0.05406452715396881
1715439432353772500,6.8127724609375,-0.12516117095947266,0.11476349830627441,-0.05343075096607208
1715439432363778800,6.82277880859375,-0.1499166488647461,0.11107492446899414,-0.03450360894203186
1715439432373784800,6.832784912109375,-0.1839008331298828,0.08031225204467773,-0.040044136345386505
1715439432383791000,6.842791015625,-0.1939687728881836,0.05097341537475586,-0.03615565598011017
1715439432393797000,6.852797119140625,-0.19940948486328125,0.01852250099182129,-0.0363466739654541
1715439432403803400,6.862803466796875,-0.16269207000732422,-0.026198148727416992,-0.05405545234680176
1715439432413809400,6.872809326171875,-0.09381389617919922,-0.04121088981628418,-0.05065856873989105
1715439432423815700,6.882815673828125,-0.016829490661621094,-0.02711629867553711,-0.02185651659965515
1715439432433821700,6.89282177734375,0.054200172424316406,0.038324594497680664,-0.011529594659805298
1715439432443828000,6.902827880859375,0.08652782440185547,0.07380342483520508,-0.006916850805282593
1715439432453834000,6.912833984375,0.03849983215332031,0.08893775939941406,-0.018192462623119354
1715439432463840300,6.92284033203125,0.0008335113525390625,0.056215763092041016,0.03471779823303223
1715439432473846300,6.93284619140625,-0.054950714111328125,-0.06573677062988281,-0.003998085856437683
1715439432483852500,6.9428525390625,-0.0910806655883789,-0.05800819396972656,-0.0893099308013916
1715439432493858600,6.952858642578125,-0.10788536071777344,0.053603410720825195,-0.06836266070604324
1715439432503864800,6.96286474609375,-0.13878154754638672,0.1078643798828125,-0.003816545009613037
1715439432513870800,6.972870849609375,-0.15528011322021484,0.030384063720703125,-0.02349841594696045
1715439432523877000,6.982877197265625,-0.14345550537109375,-0.04490089416503906,-0.06131802499294281
1715439432533883400,6.99288330078125,-0.16026020050048828,-0.028661012649536133,-0.1452915072441101
1715439432543889400,7.002889404296875,-0.1298980712890625,0.007056474685668945,-0.15704619884490967
1715439432553895700,7.012895751953125,-0.0672149658203125,0.07575345039367676,-0.17321178317070007
1715439432563901700,7.022901611328125,-0.03864002227783203,0.15794730186462402,-0.14259107410907745
1715439432573908000,7.032907958984375,0.01763153076171875,0.13087940216064453,-0.061379726976156235
1715439432583914000,7.0429140625,0.058869361877441406,0.0947418212890625,-0.12333954870700836
1715439432593920300,7.052920166015625,0.09481430053710938,0.07292962074279785,-0.18081176280975342
1715439432603926300,7.06292626953125,0.09737777709960938,0.050772666931152344,-0.15023906528949738
1715439432613932500,7.0729326171875,0.09529685974121094,0.009746313095092773,-0.1127547025680542
1715439432623938600,7.0829384765625,0.14052391052246094,0.03451728820800781,-0.053361501544713974
1715439432633944800,7.09294482421875,0.23708152770996094,0.09994029998779297,0.03301183879375458
1715439432643950800,7.102950927734375,0.29485511779785156,0.11966991424560547,0.09410722553730011
1715439432653957000,7.11295703125,0.28621864318847656,0.11811089515686035,0.0973406508564949
1715439432663963100,7.122963134765625,0.1463155746459961,0.10052895545959473,0.05347570776939392
1715439432673969400,7.132969482421875,-0.019326210021972656,0.07300972938537598,0.048502564430236816
1715439432683975400,7.142975341796875,-0.13516616821289062,0.04143857955932617,0.02549629658460617
1715439432693981700,7.152981689453125,-0.1833648681640625,0.011300086975097656,-0.042987726628780365
1715439432703987700,7.16298779296875,-0.23576831817626953,-0.002897500991821289,-0.10486885905265808
1715439432713994000,7.172993896484375,-0.245330810546875,0.008501768112182617,-0.11347438395023346
1715439432724000000,7.183,-0.22695350646972656,-0.011129140853881836,-0.10340435802936554
1715439432734006300,7.19300634765625,-0.2139291763305664,0.018167495727539062,-0.11256042867898941
1715439432744012300,7.20301220703125,-0.16367721557617188,0.043279170989990234,-0.08877193182706833
1715439432754018600,7.2130185546875,-0.10970115661621094,-0.020787954330444336,-0.03798992931842804
1715439432764024600,7.223024658203125,-0.05194282531738281,-0.022381067276000977,-0.008186481893062592
1715439432774030800,7.23303076171875,0.047283172607421875,0.05589032173156738,-0.016838908195495605
1715439432784036900,7.243036865234375,0.08383655548095703,0.08956718444824219,-0.03847620636224747
1715439432794043000,7.25304296875,0.0540008544921875,0.07959413528442383,-0.06306120753288269
1715439432804049200,7.263049072265625,-0.027144432067871094,0.06036877632141113,-0.10043240338563919
1715439432814055200,7.27305517578125,-0.10710334777832031,0.04688239097595215,-0.14135199785232544
1715439432824061200,7.283061279296875,-0.12003898620605469,0.05817890167236328,-0.1483389437198639
1715439432834067500,7.2930673828125,-0.043453216552734375,0.07941770553588867,-0.1270930916070938
1715439432844073500,7.303073486328125,0.045990943908691406,0.09560179710388184,-0.08810673654079437
1715439432854079500,7.31307958984375,0.08700275421142578,0.10149836540222168,-0.05054333806037903
1715439432864085800,7.323085693359375,0.07575321197509766,0.1016836166381836,-0.00534319132566452
1715439432874091800,7.333091796875,0.041321754455566406,0.08703351020812988,0.03320680558681488
1715439432884097800,7.343097900390625,0.012231826782226562,0.07241940498352051,0.004398137331008911
1715439432894104000,7.35310400390625,0.044838905334472656,0.03450441360473633,-0.05676738917827606
1715439432904110000,7.363110107421875,0.06754779815673828,0.020461559295654297,-0.0834493488073349
1715439432914116000,7.3731162109375,0.06636714935302734,0.011162757873535156,-0.11824125051498413
1715439432924122000,7.3831220703125,0.013418197631835938,-0.0216217041015625,-0.11371993273496628
1715439432934128400,7.39312841796875,0.0036983489990234375,-0.020798683166503906,-0.11818666756153107
1715439432944134400,7.403134521484375,0.0035247802734375,-0.005761146545410156,-0.09835207462310791
1715439432954140400,7.413140380859375,0.055167198181152344,0.013631820678710938,-0.09264864027500153
1715439432964146700,7.423146728515625,0.0825357437133789,0.04151630401611328,-0.09149105846881866
1715439432974152700,7.433152587890625,0.15204143524169922,0.0868690013885498,-0.0913735181093216
1715439432984158700,7.44315869140625,0.22078514099121094,0.08275914192199707,0.05227404832839966
1715439432994165000,7.4531650390625,0.16163253784179688,0.13359355926513672,0.01835489273071289
1715439433004171000,7.4631708984375,0.033115386962890625,0.13999271392822266,-0.019831985235214233
1715439433014177000,7.473177001953125,-0.06031513214111328,0.11342811584472656,-0.019736066460609436
1715439433024183000,7.48318310546875,-0.15231895446777344,0.09733057022094727,-0.029057979583740234
1715439433034189300,7.493189208984375,-0.23362445831298828,0.049649715423583984,-0.03306485712528229
1715439433044195300,7.5031953125,-0.2810697555541992,0.03763699531555176,-0.07329148054122925
1715439433054201300,7.513201416015625,-0.14919662475585938,0.0038919448852539062,-0.12501028180122375
1715439433064207600,7.52320751953125,-0.09977054595947266,-0.07544779777526855,-0.11513128876686096
1715439433074213600,7.533213623046875,-0.16439342498779297,0.0029420852661132812,-0.035497263073921204
1715439433084219600,7.5432197265625,-0.11518096923828125,0.09515166282653809,-0.021910250186920166
1715439433094226000,7.553225830078125,0.013214111328125,0.12009429931640625,-0.08385076373815536
1715439433104232000,7.56323193359375,0.06900882720947266,0.12517547607421875,-0.10400320589542389
1715439433114238000,7.573238037109375,0.05344676971435547,0.07756257057189941,-0.040059894323349
1715439433124244200,7.583244140625,0.02879619598388672,-0.07314801216125488,-0.05722888559103012
1715439433134250200,7.593250244140625,0.013968467712402344,-0.0847768783569336,-0.102211132645607
1715439433144256300,7.60325634765625,-0.05252361297607422,0.04556727409362793,-0.0193147212266922
1715439433154262300,7.61326220703125,-0.08041000366210938,0.06614160537719727,0.05355708301067352
1715439433164268500,7.6232685546875,-0.11735153198242188,-0.04037332534790039,0.02253568172454834
1715439433174274600,7.633274658203125,-0.13966751098632812,-0.05525493621826172,-0.05365341901779175
1715439433184280600,7.643280517578125,-0.15237903594970703,-0.007980108261108398,-0.05173386633396149
1715439433194286800,7.653286865234375,-0.07559967041015625,0.07696938514709473,-0.0023228824138641357
1715439433204292900,7.66329296875,-0.02380847930908203,0.170623779296875,-0.005004078149795532
1715439433214299000,7.673298828125,-0.024763107299804688,0.1642439365386963,-0.06889747083187103
1715439433224305200,7.68330517578125,-0.0257720947265625,0.07362723350524902,-0.1468486189842224
1715439433234311200,7.693311279296875,-0.03154754638671875,0.046151161193847656,-0.25253626704216003
1715439433244317200,7.703317138671875,0.09459877014160156,0.005131959915161133,-0.2910340130329132
1715439433254323200,7.7133232421875,0.18591594696044922,-0.08326315879821777,-0.3531579375267029
1715439433264329500,7.72332958984375,0.17705440521240234,-0.12877249717712402,-0.3393610715866089
1715439433274335500,7.73333544921875,0.20154666900634766,-0.07100820541381836,-0.269673228263855
1715439433284341500,7.743341552734375,0.258880615234375,-0.020203590393066406,-0.1402628868818283
1715439433294347800,7.75334765625,0.2590761184692383,0.028254985809326172,-0.09254513680934906
1715439433304353800,7.763353759765625,0.21725749969482422,0.045940399169921875,-0.06399606913328171
1715439433314359800,7.77335986328125,0.1387767791748047,0.04778170585632324,-0.012170329689979553
1715439433324366000,7.783365966796875,0.04764270782470703,0.09595489501953125,0.024277299642562866
1715439433334372000,7.7933720703125,-0.023057937622070312,0.10062813758850098,0.031397745013237
1715439433344378400,7.80337841796875,-0.14450740814208984,0.09169173240661621,0.015052616596221924
1715439433354384400,7.81338427734375,-0.24067401885986328,0.08891487121582031,0.05064678192138672
1715439433364390700,7.823390625,-0.24612140655517578,0.11603569984436035,0.06655238568782806
1715439433374396700,7.833396728515625,-0.18594741821289062,0.11154937744140625,0.0911826640367508
1715439433384403000,7.84340283203125,-0.12224388122558594,0.08440017700195312,0.04471792280673981
1715439433394409000,7.853408935546875,-0.050217628479003906,0.06722831726074219,0.0419447124004364
1715439433404415200,7.863415283203125,0.011243820190429688,-0.0017590522766113281,0.0730530321598053
1715439433414421200,7.873421142578125,0.07649993896484375,0.005227565765380859,0.037834927439689636
1715439433424427500,7.883427490234375,0.051291465759277344,0.0587773323059082,0.003450930118560791
1715439433434433500,7.89343359375,0.0878143310546875,0.08267498016357422,0.02679361402988434
1715439433444439800,7.903439697265625,0.09096240997314453,0.05816245079040527,0.012581288814544678
1715439433454445800,7.91344580078125,0.028295516967773438,0.06158947944641113,-0.057842887938022614
1715439433464452000,7.9234521484375,-0.038018226623535156,0.05553436279296875,-0.07611905783414841
1715439433474458000,7.9334580078125,-0.06557464599609375,0.05448508262634277,-0.0814131423830986
1715439433484464400,7.94346435546875,-0.0832986831665039,0.05846285820007324,-0.08770744502544403
1715439433494470400,7.953470458984375,-0.08667659759521484,0.05806994438171387,-0.07106029242277145
1715439433504476700,7.9634765625,-0.06182670593261719,0.06279611587524414,-0.026842370629310608
1715439433514482700,7.973482666015625,-0.004498481750488281,0.07245326042175293,0.016762152314186096
1715439433524489000,7.983489013671875,0.04245281219482422,0.07252883911132812,0.027027085423469543
1715439433534495000,7.993494873046875,0.06515026092529297,0.05806779861450195,0.009844407439231873
