time,seconds_elapsed,z,y,x
1715439344825941800,0.117941650390625,0.02891254425048828,0.018548011779785156,-0.08878201246261597
1715439344835952400,0.127952392578125,0.055998802185058594,-0.026094913482666016,-0.09145841747522354
1715439344845963500,0.137963623046875,-0.022858619689941406,0.01066446304321289,-0.08911323547363281
1715439344855975000,0.147974853515625,-0.15302085876464844,0.01921701431274414,0.04666467010974884
1715439344865986600,0.157986572265625,-0.25387096405029297,-0.013907432556152344,0.03394809365272522
1715439344875997700,0.167997802734375,-0.2130289077758789,-0.0637516975402832,0.12827438116073608
1715439344886003700,0.178003662109375,0.09639358520507812,-0.114654541015625,0.30316677689552307
1715439344896009500,0.188009521484375,0.2857694625854492,-0.08129358291625977,-0.0011154050007462502
1715439344906015500,0.198015380859375,-0.07537078857421875,0.052967071533203125,-0.42661693692207336
1715439344916021200,0.208021240234375,-0.38260650634765625,0.1294698715209961,-0.15353593230247498
1715439344926027300,0.21802734375,-0.45123291015625,0.12644195556640625,0.15210837125778198
1715439344936033000,0.228032958984375,-0.3657360076904297,0.1241602897644043,0.13613128662109375
1715439344946039000,0.2380390625,-0.2328357696533203,0.0899057388305664,-0.0565730556845665
1715439344956044800,0.248044921875,-0.0026950836181640625,0.05979633331298828,-0.015188395977020264
1715439344966050600,0.258050537109375,0.10256576538085938,-0.06431150436401367,-0.20705606043338776
1715439344976056600,0.268056640625,0.1900644302368164,-0.09171342849731445,-0.30839088559150696
1715439344986062300,0.278062255859375,0.27527904510498047,0.1241455078125,0.09680211544036865
1715439344996068400,0.288068359375,0.30411720275878906,0.1401224136352539,0.08510759472846985
1715439345006074000,0.29807421875,0.3990631103515625,0.08259201049804688,-0.03901088237762451
1715439345016080100,0.308080078125,0.4755287170410156,0.03583097457885742,-0.1014525443315506
1715439345026086000,0.3180859375,0.48807334899902344,0.022396564483642578,-0.1738620400428772
1715439345036092000,0.328091796875,0.4711790084838867,0.05508565902709961,-0.1023280918598175
1715439345046097700,0.33809765625,0.3140850067138672,0.07767868041992188,-0.08472971618175507
1715439345056103700,0.348103759765625,0.03380870819091797,0.0875997543334961,-0.12452270090579987
1715439345066109400,0.358109375,-0.1121368408203125,0.0639338493347168,-0.03076031804084778
1715439345076115500,0.368115478515625,-0.09548664093017578,0.05419158935546875,0.13206903636455536
1715439345086121200,0.378121337890625,0.028455734252929688,0.0618290901184082,0.22501201927661896
1715439345096127200,0.388127197265625,0.08965682983398438,0.06259298324584961,0.14662523567676544
1715439345106133000,0.398133056640625,0.09918880462646484,-0.03642463684082031,0.03340117633342743
1715439345116139000,0.408138916015625,-0.021209716796875,-0.10624170303344727,-0.20048508048057556
1715439345126144800,0.418144775390625,-0.1711273193359375,-0.11846685409545898,-0.2808356285095215
1715439345136150800,0.42815087890625,-0.27127933502197266,-0.10146856307983398,-0.1619907021522522
1715439345146156500,0.438156494140625,-0.37983131408691406,-0.06856966018676758,-0.11548923701047897
1715439345156162600,0.44816259765625,-0.4318075180053711,-0.07051801681518555,-0.12437065690755844
1715439345166168300,0.458168212890625,-0.5127725601196289,-0.09239578247070312,-0.22187960147857666
1715439345176174300,0.46817431640625,-0.5380420684814453,-0.04929685592651367,-0.23572422564029694
1715439345186180000,0.47818017578125,-0.41936779022216797,-0.03726530075073242,-0.1498831808567047
1715439345196186000,0.48818603515625,-0.4028463363647461,-0.07056093215942383,-0.12214882671833038
1715439345206191900,0.49819189453125,-0.40671253204345703,-0.06371736526489258,-0.21770551800727844
1715439345216198000,0.508197998046875,-0.2145538330078125,-0.0790562629699707,-0.1809578537940979
1715439345226203600,0.51820361328125,0.015668869018554688,-0.06569576263427734,-0.06953468918800354
1715439345236209700,0.528209716796875,0.1946849822998047,-0.024994850158691406,0.0037627369165420532
1715439345246215400,0.53821533203125,0.24887752532958984,-0.009724140167236328,0.04969870299100876
1715439345256221400,0.548221435546875,0.015748023986816406,0.02386951446533203,0.005204550921916962
1715439345266227200,0.558227294921875,-0.22328662872314453,0.034986019134521484,0.004228316247463226
1715439345276233200,0.568233154296875,-0.34177494049072266,0.02947998046875,0.07067729532718658
1715439345286239000,0.578239013671875,-0.3940763473510742,-0.05274152755737305,0.02605787105858326
1715439345296245000,0.588244873046875,-0.2634563446044922,-0.1216440200805664,-0.09781278669834137
1715439345306250800,0.598250732421875,-0.036774635314941406,-0.12276792526245117,-0.23184362053871155
1715439345316256800,0.6082568359375,0.2903280258178711,-0.07357120513916016,-0.1052611693739891
1715439345326262500,0.618262451171875,0.5483322143554688,-0.062334537506103516,-0.09163689613342285
1715439345336268500,0.6282685546875,0.6262531280517578,-0.09450864791870117,-0.19159871339797974
1715439345346274300,0.6382744140625,0.612330436706543,-0.12347555160522461,-0.17104573547840118
1715439345356280300,0.6482802734375,0.5597524642944336,-0.092529296875,0.10295584052801132
1715439345366286000,0.6582861328125,0.4118356704711914,-0.0058193206787109375,0.2996762990951538
1715439345376292000,0.6682919921875,0.17862319946289062,0.14226961135864258,0.382015585899353
1715439345386297900,0.6782978515625,0.03910255432128906,0.11785364151000977,0.30986350774765015
1715439345396304000,0.688303955078125,-0.07514667510986328,0.0008797645568847656,0.23244117200374603
1715439345406309600,0.6983095703125,-0.19835853576660156,-0.07372236251831055,0.11617179214954376
1715439345416315600,0.708315673828125,-0.2602262496948242,-0.07759618759155273,0.025282762944698334
1715439345426321400,0.7183212890625,-0.24783039093017578,-0.06816768646240234,0.023451700806617737
1715439345436327400,0.728327392578125,-0.23766326904296875,-0.04114246368408203,-0.059830792248249054
1715439345446333200,0.738333251953125,-0.15365028381347656,-0.09224414825439453,-0.4602436125278473
1715439345456339000,0.7483388671875,0.003989219665527344,-0.2125563621520996,-0.4776548147201538
1715439345466345000,0.758344970703125,0.09398269653320312,-0.21005821228027344,-0.3736175000667572
1715439345476351000,0.76835107421875,0.35398101806640625,-0.10292816162109375,0.006941456347703934
1715439345486357000,0.77835693359375,0.4617176055908203,0.1480870246887207,0.6426041722297668
1715439345496362800,0.78836279296875,0.2924156188964844,0.5267949104309082,0.9053998589515686
1715439345506368800,0.79836865234375,0.2122211456298828,0.3737654685974121,0.45415833592414856
1715439345516374800,0.808374755859375,-0.06381416320800781,-0.06954717636108398,-0.25572288036346436
1715439345526380500,0.818380615234375,-0.40671825408935547,-0.24010848999023438,-0.38143447041511536
1715439345536386600,0.828386474609375,-0.5577707290649414,-0.15896034240722656,-0.14141631126403809
1715439345546392600,0.838392578125,-0.4925222396850586,-0.041225433349609375,0.08218938112258911
1715439345556398300,0.8483984375,-0.2564067840576172,0.022005558013916016,0.12232306599617004
1715439345566404400,0.858404296875,0.03155040740966797,0.04776811599731445,0.03716922178864479
1715439345576410400,0.868410400390625,0.22125244140625,0.053006649017333984,-0.11120135337114334
1715439345586416400,0.87841650390625,0.25395679473876953,0.008378028869628906,-0.22455951571464539
1715439345596422100,0.888422119140625,0.19831085205078125,-0.019544601440429688,-0.1438993364572525
1715439345606428200,0.89842822265625,0.11167621612548828,-0.04408836364746094,0.03376711159944534
1715439345616434200,0.90843408203125,-0.015615463256835938,-0.04512453079223633,0.05228607356548309
1715439345626440000,0.91843994140625,-0.15070343017578125,-0.0640716552734375,0.07840389013290405
1715439345636446000,0.928446044921875,-0.2895822525024414,-0.0850687026977539,0.03585345298051834
1715439345646452000,0.938451904296875,-0.3477487564086914,-0.11225605010986328,-0.028194904327392578
1715439345656457700,0.948457763671875,-0.3269672393798828,-0.10714912414550781,-0.05187157541513443
1715439345666463700,0.958463623046875,-0.10556316375732422,-0.07127761840820312,0.014812115579843521
1715439345676469800,0.9684697265625,0.1069192886352539,-0.025691986083984375,0.03646042197942734
1715439345686475500,0.9784755859375,0.2550010681152344,-0.028578758239746094,0.02435348369181156
1715439345696481500,0.9884814453125,0.16145610809326172,-0.03312063217163086,0.010891343466937542
1715439345706487600,0.998487548828125,-0.11840534210205078,-0.024268150329589844,-0.016112038865685463
1715439345716493600,1.00849365234375,-0.38935375213623047,-0.019466400146484375,-0.011550748720765114
1715439345726499300,1.018499267578125,-0.5866031646728516,-0.02165508270263672,0.03256108611822128
1715439345736505300,1.02850537109375,-0.6272983551025391,-0.04839468002319336,0.012224244885146618
1715439345746511400,1.038511474609375,-0.5517606735229492,-0.04268693923950195,-0.1000305563211441
1715439345756517000,1.04851708984375,-0.33324623107910156,-0.03403902053833008,-0.1425292044878006
1715439345766523100,1.058523193359375,-0.12864017486572266,-0.03813743591308594,-0.09030184894800186
1715439345776529200,1.068529052734375,0.011217117309570312,-0.0324711799621582,-0.09911190718412399
1715439345786535000,1.078534912109375,0.1541891098022461,-0.00930166244506836,-0.09248694032430649
1715439345796541000,1.088541015625,0.14989852905273438,-0.007217884063720703,-0.04309467226266861
1715439345806547000,1.098546875,0.0948629379272461,-0.006861209869384766,0.04345174878835678
1715439345816552700,1.108552734375,-0.006081581115722656,0.007174968719482422,0.026505623012781143
1715439345826558700,1.118558837890625,-0.11065101623535156,-0.010898590087890625,-0.03150563687086105
1715439345836564700,1.128564697265625,-0.1390829086303711,-0.04108238220214844,0.019251182675361633
1715439345846570800,1.13857080078125,-0.04053783416748047,-0.06958675384521484,0.058000195771455765
1715439345856576500,1.148576416015625,0.047036170959472656,-0.07886075973510742,0.0179484523832798
1715439345866582500,1.15858251953125,0.19510459899902344,-0.07510042190551758,-0.033846624195575714
1715439345876588500,1.168588623046875,0.3089275360107422,-0.07816267013549805,-0.11964456737041473
1715439345886594300,1.17859423828125,0.2853813171386719,-0.0736246109008789,-0.1166655421257019
1715439345896600300,1.188600341796875,0.11212444305419922,-0.056003570556640625,-0.10067266970872879
1715439345906606300,1.1986064453125,0.01690196990966797,-0.04299640655517578,-0.0371491014957428
1715439345916612000,1.208612060546875,0.09731292724609375,0.012451648712158203,0.062005870044231415
1715439345926618000,1.2186181640625,0.07266616821289062,0.010663032531738281,-0.09614433348178864
1715439345936624000,1.2286240234375,0.07693099975585938,-0.024487018585205078,-0.1999492645263672
1715439345946630000,1.2386298828125,0.06746864318847656,-0.06454849243164062,-0.19111096858978271
1715439345956636000,1.248635986328125,0.14818382263183594,-0.029578685760498047,-0.07044360041618347
1715439345966641700,1.2586416015625,0.35574913024902344,0.031070232391357422,0.08762478828430176
1715439345976647700,1.268647705078125,0.5899524688720703,0.06832456588745117,0.09728369116783142
1715439345986653400,1.2786533203125,0.5776548385620117,0.0630197525024414,-0.01685468852519989
1715439345996659500,1.288659423828125,0.36484336853027344,-0.001964569091796875,-0.08104413747787476
1715439346006665200,1.298665283203125,0.03862476348876953,-0.06721925735473633,-0.16898535192012787
1715439346016671200,1.308671142578125,-0.2307596206665039,-0.10699701309204102,-0.22100916504859924
1715439346026677000,1.318677001953125,-0.33183956146240234,-0.10651159286499023,-0.05413547903299332
1715439346036683000,1.32868310546875,-0.3335990905761719,-0.06128883361816406,0.05138407647609711
1715439346046688800,1.338688720703125,-0.26578235626220703,-0.03827810287475586,0.08700470626354218
1715439346056694800,1.34869482421875,-0.1999340057373047,-0.02342987060546875,-0.00710923969745636
1715439346066700500,1.358700439453125,-0.20671367645263672,-0.0306243896484375,-0.1340775489807129
1715439346076706600,1.36870654296875,-0.2994813919067383,-0.0963282585144043,-0.2277422696352005
1715439346086712300,1.37871240234375,-0.4398632049560547,-0.11930418014526367,-0.2656829357147217
1715439346096718300,1.38871826171875,-0.46744441986083984,-0.08994150161743164,-0.20149046182632446
1715439346106724000,1.39872412109375,-0.37467002868652344,-0.06561708450317383,-0.12086278200149536
1715439346116730000,1.408730224609375,-0.21952247619628906,-0.05657196044921875,-0.07556086778640747
1715439346126736000,1.41873583984375,0.1110992431640625,-0.031757354736328125,0.012393414974212646
1715439346136742000,1.428741943359375,0.45572471618652344,-0.04151105880737305,0.06854590773582458
1715439346146747600,1.43874755859375,0.6935005187988281,-0.0980539321899414,0.1205030083656311
1715439346156753700,1.448753662109375,0.7760610580444336,-0.14250850677490234,0.09143337607383728
1715439346166759400,1.458759521484375,0.5838565826416016,-0.11440896987915039,-0.018444210290908813
1715439346176765400,1.468765380859375,0.4449758529663086,-0.031311988830566406,-0.03684031963348389
1715439346186771200,1.478771240234375,0.4278688430786133,0.023121356964111328,0.13400748372077942
1715439346196777200,1.488777099609375,0.23758602142333984,-0.038140296936035156,0.14143279194831848
1715439346206783000,1.498782958984375,-0.11909198760986328,-0.12668657302856445,-0.037437647581100464
1715439346216789000,1.5087890625,-0.5938405990600586,-0.18697309494018555,-0.30473262071609497
1715439346226794800,1.518794677734375,-0.8281345367431641,-0.19310235977172852,-0.2060665339231491
1715439346236800800,1.52880078125,-0.8077878952026367,-0.09327840805053711,0.03465843200683594
1715439346246806500,1.538806640625,-0.48107147216796875,0.05926799774169922,0.3421153426170349
1715439346256812500,1.5488125,0.01071929931640625,0.23403644561767578,0.6983726620674133
1715439346266818300,1.558818359375,0.6012153625488281,0.2894601821899414,0.7142578363418579
1715439346276824300,1.56882421875,1.0900745391845703,0.14998674392700195,0.618598997592926
1715439346286830000,1.578830078125,1.2648658752441406,0.021803855895996094,0.19649502635002136
1715439346296836000,1.588836181640625,1.1882495880126953,-0.07747364044189453,0.020367473363876343
1715439346306841900,1.598841796875,0.9355278015136719,-0.0265655517578125,0.05915707349777222
1715439346316847900,1.608847900390625,0.38121509552001953,0.047684669494628906,-0.02836787700653076
1715439346326853600,1.618853515625,-0.1949758529663086,0.05221271514892578,-0.06723794341087341
1715439346336859600,1.628859619140625,-0.5695762634277344,0.0265045166015625,-0.022704750299453735
1715439346346865400,1.638865478515625,-0.7526378631591797,-0.16683197021484375,0.15981599688529968
1715439346356871400,1.648871337890625,-0.7104120254516602,-0.10970544815063477,0.020554065704345703
1715439346366877200,1.658877197265625,-0.6819257736206055,-0.1548757553100586,-0.2166636735200882
1715439346376883200,1.66888330078125,-0.43091869354248047,-0.10410785675048828,-0.2433808445930481
1715439346386889000,1.678888916015625,-0.1393413543701172,0.16663742065429688,0.2078288197517395
1715439346396895000,1.68889501953125,0.1279897689819336,0.11352777481079102,0.3573181927204132
1715439346406900700,1.698900634765625,0.24070262908935547,-0.2929239273071289,-0.24747774004936218
1715439346416906800,1.70890673828125,0.3335990905761719,-0.15301084518432617,-0.1377251148223877
1715439346426912800,1.718912841796875,0.20862483978271484,-0.0066699981689453125,-0.05593329668045044
1715439346436918500,1.72891845703125,0.1561450958251953,0.052950382232666016,-0.11255955696105957
1715439346446924500,1.738924560546875,0.08608436584472656,-0.07254457473754883,-0.12407554686069489
1715439346456930600,1.7489306640625,0.050640106201171875,-0.1026296615600586,-0.08917893469333649
1715439346466936300,1.758936279296875,0.044297218322753906,-0.01961994171142578,-0.07002745568752289
1715439346476942300,1.7689423828125,-0.004245758056640625,0.07607364654541016,-0.07110454142093658
1715439346486948400,1.7789482421875,-0.019461631774902344,0.09097433090209961,-0.01101452112197876
1715439346496954000,1.7889541015625,0.09241580963134766,0.11550283432006836,-0.002255678176879883
1715439346506960100,1.798960205078125,0.16034412384033203,0.07315874099731445,-0.07382816076278687
1715439346516966100,1.808966064453125,0.20456314086914062,0.020389556884765625,-0.11780671775341034
1715439346526972200,1.81897216796875,0.14554500579833984,-0.052229881286621094,-0.07422199845314026
1715439346536978000,1.82897802734375,0.055207252502441406,-0.09177017211914062,-0.005548566579818726
1715439346546984000,1.83898388671875,0.01351165771484375,-0.07413291931152344,-0.0008470714092254639
1715439346556990000,1.848989990234375,0.038443565368652344,-0.02390766143798828,0.07531291246414185
1715439346566995700,1.85899560546875,0.05859088897705078,-0.036467552185058594,0.08099821209907532
1715439346577001700,1.869001708984375,0.09319210052490234,-0.04078483581542969,0.07434934377670288
1715439346587007700,1.8790078125,-0.042130470275878906,-0.0784001350402832,0.09760794043540955
1715439346597013500,1.889013427734375,-0.19046878814697266,-0.03322601318359375,0.1071966290473938
1715439346607019500,1.89901953125,-0.21542930603027344,0.009467124938964844,0.23279765248298645
1715439346617025500,1.909025634765625,0.046642303466796875,0.05723285675048828,0.44213366508483887
1715439346627031300,1.91903125,0.30558300018310547,0.016962051391601562,0.2968578040599823
1715439346637037300,1.929037353515625,0.6903209686279297,0.04698801040649414,0.0421295166015625
1715439346647043300,1.939043212890625,0.8282585144042969,-0.0072841644287109375,-0.11790335178375244
1715439346657049300,1.94904931640625,0.5823736190795898,-0.08336687088012695,-0.19436171650886536
1715439346667055000,1.95905517578125,0.10774707794189453,-0.1252613067626953,-0.11780424416065216
1715439346677061000,1.96906103515625,-0.3356895446777344,-0.11865615844726562,-0.06599810719490051
1715439346687067100,1.979067138671875,-0.6376876831054688,-0.1591353416442871,-0.20336641371250153
1715439346697073000,1.989072998046875,-0.773655891418457,-0.15877246856689453,-0.3540559709072113
1715439346707079000,1.999078857421875,-0.6948232650756836,-0.0990757942199707,-0.2774198055267334
1715439346717085000,2.0090849609375,-0.4131307601928711,-0.0773615837097168,-0.07313792407512665
1715439346727090700,2.019090576171875,-0.11396121978759766,-0.048931121826171875,-0.05802895128726959
1715439346737096700,2.0290966796875,-0.008225440979003906,-0.04439258575439453,-0.1026611253619194
1715439346747102700,2.039102783203125,0.006575584411621094,-0.054547786712646484,-0.1843431293964386
1715439346757108500,2.0491083984375,-0.12007999420166016,-0.0550694465637207,-0.10695977509021759
1715439346767114500,2.059114501953125,-0.35410213470458984,-0.08626556396484375,0.05568043887615204
1715439346777120500,2.06912060546875,-0.44501209259033203,-0.07078218460083008,0.11971241235733032
1715439346787126500,2.07912646484375,-0.43327808380126953,-0.07929849624633789,0.13465945422649384
1715439346797132300,2.08913232421875,-0.3013296127319336,-0.0651407241821289,0.05030554533004761
1715439346807138300,2.09913818359375,-0.13506221771240234,-0.03490495681762695,-0.019548609852790833
1715439346817144300,2.109144287109375,-0.08036994934082031,-0.04181480407714844,-0.0420200377702713
1715439346827150000,2.119150146484375,-0.050454139709472656,-0.052654266357421875,-0.031059235334396362
1715439346837156000,2.129156005859375,0.04011058807373047,-0.07732486724853516,0.0006633996963500977
1715439346847162000,2.139162109375,0.24284076690673828,-0.0792856216430664,-0.008313149213790894
1715439346857168000,2.14916796875,0.36366939544677734,-0.05102109909057617,-0.1112678200006485
1715439346867174000,2.159173828125,0.38531017303466797,-0.049904823303222656,-0.07148219645023346
1715439346877180000,2.169179931640625,0.34181690216064453,-0.06508827209472656,-0.012502968311309814
1715439346887185700,2.179185546875,0.22893047332763672,-0.052664756774902344,-0.021525919437408447
1715439346897191700,2.189191650390625,0.0994119644165039,-0.007937908172607422,-0.0015002787113189697
1715439346907197700,2.19919775390625,0.03343391418457031,-0.011218547821044922,0.018967002630233765
1715439346917203700,2.20920361328125,0.0014829635620117188,-0.0377960205078125,0.021714255213737488
1715439346927209500,2.21920947265625,-0.03964710235595703,-0.020904541015625,0.01320706307888031
1715439346937215500,2.229215576171875,-0.047476768493652344,-0.0035529136657714844,-0.02945294976234436
1715439346947221500,2.239221435546875,-0.0601806640625,0.023584365844726562,-0.0821145623922348
1715439346957227300,2.249227294921875,-0.07301521301269531,0.013265132904052734,-0.04847636818885803
1715439346967233300,2.2592333984375,-0.05323219299316406,0.03238868713378906,0.033698439598083496
1715439346977239300,2.2692392578125,0.06951045989990234,0.01398324966430664,0.0990200787782669
1715439346987245000,2.2792451171875,0.12457561492919922,-0.000041484832763671875,-0.013332292437553406
1715439346997251000,2.2892509765625,0.0000934600830078125,0.013888359069824219,-0.048800691962242126
1715439347007256800,2.2992568359375,-0.14163589477539062,-0.023190021514892578,0.05200071632862091
1715439347017262800,2.309262939453125,-0.19737911224365234,-0.08562326431274414,0.0843910276889801
1715439347027268600,2.3192685546875,-0.06489944458007812,-0.10725593566894531,0.10711580514907837
1715439347037274600,2.329274658203125,0.20669174194335938,-0.12393760681152344,0.0459616482257843
1715439347047280400,2.3392802734375,0.40921974182128906,-0.10063505172729492,-0.1364574134349823
1715439347057286400,2.349286376953125,0.5260305404663086,-0.07297468185424805,-0.24632076919078827
1715439347067292200,2.359292236328125,0.7428054809570312,-0.02347707748413086,-0.28931915760040283
1715439347077298200,2.369298095703125,0.7147903442382812,0.03675985336303711,-0.1719796359539032
1715439347087304000,2.379303955078125,0.49247169494628906,0.024059295654296875,-0.09740719199180603
1715439347097310000,2.38931005859375,0.19068336486816406,-0.015119552612304688,-0.1078193187713623
1715439347107315700,2.399315673828125,-0.04942893981933594,-0.09157514572143555,-0.027814701199531555
1715439347117321700,2.40932177734375,-0.15433025360107422,-0.09961748123168945,0.02412402629852295
1715439347127327500,2.419327392578125,-0.19261837005615234,-0.10077095031738281,0.015271887183189392
1715439347137333500,2.42933349609375,-0.3211555480957031,-0.08019590377807617,-0.013381555676460266
1715439347147339300,2.43933935546875,-0.30803966522216797,-0.02830982208251953,0.04356943070888519
1715439347157345300,2.44934521484375,-0.33008766174316406,-0.04876899719238281,0.033793240785598755
1715439347167351000,2.45935107421875,-0.29251670837402344,-0.07454299926757812,0.0014693886041641235
1715439347177357000,2.469357177734375,-0.23374271392822266,-0.044789791107177734,-0.05339610576629639
1715439347187362800,2.47936279296875,-0.17711448669433594,-0.022650718688964844,-0.06538356840610504
1715439347197368800,2.489368896484375,-0.12218284606933594,-0.05591440200805664,-0.04868656396865845
1715439347207374600,2.49937451171875,-0.13471221923828125,-0.06859683990478516,-0.1018802672624588
1715439347217380600,2.509380615234375,-0.09593868255615234,-0.07968950271606445,-0.12067009508609772
1715439347227386400,2.519386474609375,-0.03462696075439453,-0.06160926818847656,-0.10128846019506454
1715439347237392400,2.529392333984375,0.0066280364990234375,-0.0339503288269043,-0.09200994670391083
1715439347247398100,2.539398193359375,0.09444427490234375,-0.021136760711669922,-0.07374304533004761
1715439347257404200,2.549404052734375,0.16715049743652344,-0.018857479095458984,-0.03232608735561371
1715439347267410000,2.559409912109375,0.18747711181640625,-0.01780080795288086,-0.03443330526351929
1715439347277416000,2.569416015625,0.25060558319091797,-0.02293252944946289,-0.05136549472808838
1715439347287421700,2.579421630859375,0.3229789733886719,0.003235340118408203,-0.06320953369140625
1715439347297427700,2.589427734375,0.3435688018798828,0.040607452392578125,-0.05019664764404297
1715439347307433500,2.59943359375,0.2896585464477539,0.10321855545043945,0.0007385909557342529
1715439347317439500,2.609439453125,0.19037532806396484,0.14900541305541992,0.098240926861763
1715439347327445200,2.6194453125,-0.03897571563720703,0.08548307418823242,0.12372778356075287
1715439347337451300,2.629451171875,-0.14288711547851562,0.029258251190185547,0.07564042508602142
1715439347347457000,2.63945703125,-0.08618640899658203,0.032846927642822266,0.020805492997169495
1715439347357463000,2.649463134765625,-0.041057586669921875,-0.003623485565185547,-0.10638806223869324
1715439347367468800,2.65946875,0.07311153411865234,-0.08965063095092773,-0.22873064875602722
1715439347377474800,2.669474853515625,0.2749300003051758,-0.13674068450927734,-0.23439481854438782
1715439347387480600,2.67948046875,0.45084571838378906,-0.15674972534179688,-0.27300044894218445
1715439347397486600,2.689486572265625,0.559748649597168,-0.16594839096069336,-0.24148043990135193
1715439347407492600,2.69949267578125,0.41469287872314453,-0.06622076034545898,-0.024387717247009277
1715439347417498600,2.70949853515625,0.21207523345947266,-0.0412592887878418,0.15974731743335724
1715439347427504400,2.71950439453125,0.05132007598876953,-0.046600341796875,0.32594066858291626
1715439347437510400,2.729510498046875,-0.09734439849853516,-0.028262615203857422,0.39871877431869507
1715439347447516400,2.739516357421875,-0.1500110626220703,0.019379615783691406,0.5208558440208435
1715439347457522200,2.749522216796875,0.028383255004882812,0.06730175018310547,0.6471939086914062
1715439347467528200,2.759528076171875,0.09089374542236328,0.07652854919433594,0.5895665884017944
1715439347477534200,2.7695341796875,-0.1255321502685547,0.09046554565429688,0.5862534642219543
1715439347487540000,2.7795400390625,-0.4198179244995117,0.017568588256835938,0.640967071056366
1715439347497546000,2.7895458984375,-0.6601457595825195,-0.010888099670410156,0.7089139223098755
1715439347507552000,2.799552001953125,-0.735264778137207,-0.017429828643798828,0.6669762134552002
1715439347517557800,2.809557861328125,-0.5535964965820312,-0.04507255554199219,0.6114791035652161
1715439347527563800,2.819563720703125,-0.2031078338623047,-0.057906150817871094,0.6243700385093689
1715439347537569800,2.82956982421875,0.2254037857055664,-0.07324075698852539,0.7330571413040161
1715439347547575800,2.839575927734375,0.6006011962890625,-0.11827993392944336,0.8476150631904602
1715439347557581600,2.84958154296875,0.8680601119995117,-0.11499643325805664,0.8831765651702881
1715439347567587600,2.859587646484375,1.0540742874145508,-0.09452104568481445,0.9393752813339233
1715439347577593600,2.869593505859375,1.0146360397338867,-0.11028528213500977,1.0525215864181519
1715439347587599400,2.879599365234375,0.7904014587402344,-0.08478975296020508,1.1892733573913574
1715439347597605400,2.88960546875,0.5106096267700195,-0.03079986572265625,1.268712043762207
1715439347607611400,2.899611328125,0.29302501678466797,0.015418529510498047,1.182497262954712
1715439347617617200,2.9096171875,0.16420555114746094,0.06482696533203125,1.1056277751922607
1715439347627623200,2.919623046875,0.10348320007324219,0.09929132461547852,1.074549913406372
1715439347637629200,2.929629150390625,0.11424064636230469,0.13356304168701172,1.03607177734375
1715439347647635000,2.939635009765625,0.21437835693359375,0.1623702049255371,1.0743494033813477
1715439347657641000,2.949640869140625,0.2521705627441406,0.15189695358276367,1.088926076889038
1715439347667647000,2.95964697265625,0.16758441925048828,0.11192798614501953,1.0908437967300415
1715439347677653000,2.969653076171875,-0.023568153381347656,0.05312347412109375,1.2192634344100952
1715439347687658800,2.97965869140625,-0.22126102447509766,-0.027596473693847656,1.2805628776550293
1715439347697664800,2.989664794921875,-0.3933296203613281,-0.014983654022216797,1.3227510452270508
1715439347707670800,2.9996708984375,-0.4752321243286133,-0.016930103302001953,1.360305666923523
1715439347717676500,3.009676513671875,-0.35569286346435547,-0.08453750610351562,1.261959433555603
1715439347727682600,3.0196826171875,-0.20685672760009766,-0.03928709030151367,1.1767868995666504
1715439347737688600,3.0296884765625,-0.042754173278808594,-0.01139688491821289,1.0683079957962036
1715439347747694300,3.0396943359375,0.11820125579833984,-0.06316709518432617,0.961124837398529
1715439347757700400,3.049700439453125,-0.16217708587646484,-0.06534862518310547,0.6127781867980957
1715439347767706400,3.059706298828125,-0.6586780548095703,-0.03964948654174805,0.7735908627510071
1715439347777712000,3.069712158203125,-0.433929443359375,-0.4510464668273926,1.0663951635360718
1715439347787718100,3.07971826171875,-0.38352394104003906,-0.4575061798095703,0.9334006905555725
1715439347797724200,3.08972412109375,-0.4008903503417969,-0.1788465976715088,0.7102471590042114
1715439347807730200,3.099730224609375,-0.22072505950927734,-0.07285404205322266,0.5616957545280457
1715439347817736000,3.10973583984375,-0.094970703125,-0.1009376049041748,0.5600194931030273
1715439347827742000,3.119741943359375,-0.2867546081542969,-0.1988832950592041,0.6231085062026978
1715439347837748000,3.129748046875,-0.3160219192504883,-0.09050488471984863,0.6320436000823975
1715439347847753700,3.139753662109375,0.0037164688110351562,-0.2002270221710205,0.4381208121776581
1715439347857759700,3.149759765625,0.0022439956665039062,-0.29270386695861816,0.34676551818847656
1715439347867765800,3.159765869140625,-0.12272071838378906,-0.3900935649871826,0.23815014958381653
1715439347877771500,3.169771484375,-0.04926586151123047,-0.5102176666259766,0.13371972739696503
1715439347887777500,3.179777587890625,0.37575531005859375,-0.509122371673584,-0.022918544709682465
1715439347897783600,3.189783447265625,0.8637790679931641,-0.399700403213501,-0.28375446796417236
1715439347907789300,3.199789306640625,1.177292823791504,-0.34696507453918457,-0.4819392263889313
1715439347917795300,3.20979541015625,1.2413063049316406,-0.3148794174194336,-0.5261206030845642
1715439347927801300,3.21980126953125,1.1953115463256836,-0.29955124855041504,-0.5746452808380127
1715439347937807400,3.229807373046875,1.053910255432129,-0.3342936038970947,-0.7230182886123657
1715439347947813000,3.239813232421875,0.8650016784667969,-0.356525182723999,-0.8756157159805298
1715439347957819100,3.249819091796875,0.6089897155761719,-0.40270376205444336,-0.9665244817733765
1715439347967825200,3.2598251953125,0.26101016998291016,-0.4694986343383789,-1.0466562509536743
1715439347977831000,3.269830810546875,-0.16581439971923828,-0.5434556007385254,-1.1809812784194946
1715439347987837000,3.2798369140625,-0.6826610565185547,-0.4576389789581299,-1.3537235260009766
1715439347997843000,3.289843017578125,-1.2440290451049805,-0.41185665130615234,-1.421793818473816
1715439348007848700,3.2998486328125,-1.6996846199035645,-0.394991397857666,-1.3396929502487183
1715439348017854700,3.309854736328125,-1.826582431793213,-0.457136869430542,-1.1174465417861938
1715439348027860700,3.31986083984375,-1.5195789337158203,-0.4668879508972168,-0.8081345558166504
1715439348037866500,3.329866455078125,-1.0545740127563477,-0.40103745460510254,-0.524919331073761
1715439348047872500,3.33987255859375,-0.5872964859008789,-0.3749866485595703,-0.32372164726257324
1715439348057878500,3.34987841796875,-0.2974710464477539,-0.4118638038635254,-0.09327538311481476
1715439348067884500,3.359884521484375,-0.11228370666503906,-0.5228097438812256,0.09554418921470642
1715439348077890300,3.369890380859375,-0.02631092071533203,-0.6416864395141602,0.22307088971138
1715439348087896300,3.379896240234375,0.0035638809204101562,-0.7920191287994385,0.3650822043418884
1715439348097902300,3.38990234375,-0.0038967132568359375,-0.9820127487182617,0.5640391111373901
1715439348107908000,3.399908203125,0.008172035217285156,-1.1959607601165771,0.8252766132354736
1715439348117914000,3.4099140625,0.07749652862548828,-1.3515231609344482,0.909417986869812
1715439348127920000,3.419920166015625,0.22286224365234375,-1.3862509727478027,0.8538603782653809
1715439348137926000,3.42992578125,0.40135669708251953,-1.3058862686157227,0.6776714324951172
1715439348147932000,3.439931884765625,0.7426671981811523,-1.1567678451538086,0.3427760601043701
1715439348157938000,3.44993798828125,0.798701286315918,-1.0343360900878906,-0.1671595275402069
1715439348167943700,3.459943603515625,0.6849222183227539,-0.9147932529449463,-0.6575155258178711
1715439348177949700,3.46994970703125,0.3961753845214844,-0.6237277984619141,-1.0060583353042603
1715439348187955500,3.47995556640625,0.008533477783203125,-0.5319271087646484,-1.3751945495605469
1715439348197961500,3.48996142578125,-0.41666698455810547,-0.6310527324676514,-1.9571455717086792
1715439348207967200,3.49996728515625,-0.7373075485229492,-0.7119183540344238,-2.1972403526306152
1715439348217973200,3.50997314453125,-0.8256111145019531,-0.6769688129425049,-2.3240177631378174
1715439348227979000,3.51997900390625,-0.6297140121459961,-0.6936883926391602,-2.4269204139709473
1715439348237985000,3.529985107421875,-0.5175895690917969,-0.6867761611938477,-2.408562660217285
1715439348247990800,3.53999072265625,-0.5461816787719727,-0.6511740684509277,-2.48988676071167
1715439348257996800,3.549996826171875,-0.31360340118408203,-0.6778788566589355,-2.391861915588379
1715439348268002600,3.56000244140625,0.2965726852416992,-0.7113010883331299,-2.1448094844818115
1715439348278008600,3.570008544921875,0.39084911346435547,-0.2696080207824707,-2.594438076019287
1715439348288014300,3.580014404296875,0.6681699752807617,-0.20040464401245117,-2.4540963172912598
1715439348298020400,3.590020263671875,0.8759355545043945,-0.03333926200866699,-2.0583620071411133
1715439348308026000,3.600026123046875,0.7660427093505859,0.19744229316711426,-1.7697575092315674
1715439348318032100,3.6100322265625,0.5437507629394531,0.322343111038208,-1.768633484840393
1715439348328038000,3.620037841796875,0.36139392852783203,0.41538429260253906,-1.8238741159439087
1715439348338044000,3.6300439453125,0.22297954559326172,0.5023176670074463,-1.8544199466705322
1715439348348049700,3.640049560546875,0.09934806823730469,0.47908663749694824,-1.8755651712417603
1715439348358055700,3.6500556640625,0.00926971435546875,0.43271541595458984,-2.0196685791015625
1715439348368061400,3.6600615234375,-0.1669759750366211,0.40690064430236816,-2.1620290279388428
1715439348378067500,3.6700673828125,-0.3054666519165039,0.33121371269226074,-2.2891323566436768
1715439348388073200,3.6800732421875,-0.29204368591308594,0.21619629859924316,-2.3789100646972656
1715439348398079200,3.690079345703125,-0.026617050170898438,0.2092733383178711,-2.422548770904541
1715439348408085000,3.7000849609375,0.29056262969970703,0.18320298194885254,-2.3319108486175537
1715439348418091000,3.710091064453125,0.4738616943359375,0.11218047142028809,-2.1517393589019775
1715439348428096800,3.7200966796875,0.5238780975341797,0.0960245132446289,-1.9375207424163818
1715439348438102800,3.730102783203125,0.37880802154541016,0.08236408233642578,-1.8122068643569946
1715439348448108500,3.740108642578125,0.17238330841064453,0.08701610565185547,-1.7656011581420898
1715439348458114600,3.750114501953125,0.023774147033691406,0.13491177558898926,-1.7023379802703857
1715439348468120300,3.760120361328125,0.009037971496582031,0.13579964637756348,-1.5982835292816162
1715439348478126000,3.7701259765625,0.07082271575927734,0.10323834419250488,-1.4867756366729736
1715439348488132000,3.780132080078125,0.08487319946289062,0.09434747695922852,-1.3530688285827637
1715439348498138000,3.79013818359375,0.08952522277832031,0.0898737907409668,-1.2561434507369995
1715439348508143900,3.800143798828125,0.07525157928466797,0.0849452018737793,-1.1829912662506104
1715439348518150000,3.81014990234375,0.04677009582519531,0.08454608917236328,-1.1731737852096558
1715439348528156000,3.820156005859375,0.08525943756103516,0.10310029983520508,-1.1597936153411865
1715439348538161700,3.83016162109375,0.13336944580078125,0.14015936851501465,-1.2143656015396118
1715439348548167700,3.840167724609375,0.14839553833007812,0.14242219924926758,-1.1676806211471558
1715439348558173700,3.850173583984375,0.058869361877441406,0.01922464370727539,-0.9939134120941162
1715439348568179700,3.8601796875,-0.00628662109375,-0.03220939636230469,-0.9305726289749146
1715439348578185500,3.870185546875,-0.07580184936523438,-0.12226986885070801,-1.0054608583450317
1715439348588191500,3.88019140625,-0.22179698944091797,-0.14929485321044922,-0.9665849208831787
1715439348598197500,3.890197509765625,-0.2869596481323242,-0.1837024688720703,-0.9290931820869446
1715439348608203300,3.900203369140625,-0.2523651123046875,-0.16835975646972656,-0.9413661360740662
1715439348618209300,3.910209228515625,-0.22334003448486328,-0.11311078071594238,-0.8896295428276062
1715439348628215300,3.92021533203125,-0.19512939453125,-0.09938669204711914,-0.7564460039138794
1715439348638221000,3.930220947265625,-0.09127998352050781,-0.11299991607666016,-0.6528220772743225
1715439348648227000,3.94022705078125,-0.007069587707519531,-0.1215200424194336,-0.4815733730792999
1715439348658233000,3.950233154296875,0.09592819213867188,-0.1251819133758545,-0.41768163442611694
1715439348668238800,3.96023876953125,0.17505168914794922,-0.1534898281097412,-0.4160124659538269
1715439348678244900,3.970244873046875,0.1397838592529297,-0.16373896598815918,-0.4895865023136139
1715439348688251000,3.9802509765625,0.009012222290039062,-0.17627787590026855,-0.5778031349182129
1715439348698257000,3.9902568359375,-0.11035823822021484,-0.17378640174865723,-0.6401683688163757
1715439348708262700,4.0002626953125,-0.19534015655517578,-0.14141154289245605,-0.5979101657867432
1715439348718268700,4.0102685546875,-0.1713390350341797,-0.09805107116699219,-0.5145310759544373
1715439348728274700,4.020274658203125,-0.04945182800292969,-0.04903602600097656,-0.4334486424922943
1715439348738280400,4.030280517578125,0.09842491149902344,-0.061521053314208984,-0.3455989956855774
1715439348748286500,4.040286376953125,0.21576404571533203,-0.12163138389587402,-0.3032519817352295
1715439348758292500,4.05029248046875,0.25155067443847656,-0.14448833465576172,-0.21050375699996948
1715439348768298200,4.06029833984375,0.22595882415771484,-0.20626282691955566,-0.2771386504173279
1715439348778304300,4.07030419921875,0.04559326171875,-0.20665407180786133,-0.26023462414741516
1715439348788310300,4.080310302734375,-0.061415672302246094,-0.2015237808227539,-0.24427124857902527
1715439348798316000,4.09031591796875,-0.04433441162109375,-0.19599127769470215,-0.28452202677726746
1715439348808322000,4.100322021484375,-0.07466411590576172,-0.13375186920166016,-0.22434008121490479
1715439348818328000,4.110328125,-0.09515190124511719,-0.10990405082702637,-0.18857809901237488
1715439348828334000,4.120333984375,-0.0871877670288086,-0.10948729515075684,-0.200372576713562
1715439348838339800,4.13033984375,-0.07478809356689453,-0.13201284408569336,-0.1875179409980774
1715439348848345900,4.140345947265625,-0.06268692016601562,-0.15357232093811035,-0.20126616954803467
1715439348858351900,4.150351806640625,-0.06038188934326172,-0.17860817909240723,-0.13748183846473694
1715439348868357600,4.160357666015625,0.007568359375,-0.16927242279052734,-0.08745059370994568
1715439348878363600,4.17036376953125,0.0790395736694336,-0.1691892147064209,-0.1506153643131256
1715439348888369700,4.18036962890625,0.102294921875,-0.15978240966796875,-0.18889272212982178
1715439348898375400,4.19037548828125,0.11099529266357422,-0.14552640914916992,-0.22107034921646118
1715439348908381400,4.20038134765625,0.17145729064941406,-0.13640666007995605,-0.2425096333026886
1715439348918387500,4.210387451171875,0.23593902587890625,-0.12830901145935059,-0.28167790174484253
1715439348928393200,4.220393310546875,0.28101348876953125,-0.11702203750610352,-0.2858473062515259
1715439348938399200,4.230399169921875,0.2646923065185547,-0.10759735107421875,-0.2419053614139557
1715439348948405200,4.2404052734375,0.23975372314453125,-0.09999370574951172,-0.20314624905586243
1715439348958411300,4.250411376953125,0.16387367248535156,-0.08929061889648438,-0.1890009641647339
1715439348968417000,4.2604169921875,0.00006389617919921875,-0.0655364990234375,-0.10932973027229309
1715439348978423000,4.270423095703125,-0.17521190643310547,-0.08423614501953125,-0.03515005111694336
1715439348988429000,4.280428955078125,-0.26784610748291016,-0.12032604217529297,0.04279959201812744
1715439348998434800,4.290434814453125,-0.24634075164794922,-0.11190152168273926,0.05457663536071777
1715439349008440800,4.30044091796875,-0.1594400405883789,-0.10761260986328125,-0.013052374124526978
1715439349018446800,4.31044677734375,-0.08812427520751953,-0.14557838439941406,-0.06457284092903137
1715439349028452600,4.32045263671875,-0.12627792358398438,-0.17331266403198242,-0.1280992031097412
1715439349038458600,4.330458740234375,-0.10737991333007812,-0.17167258262634277,-0.2356891930103302
1715439349048464600,4.340464599609375,-0.06532859802246094,-0.16481447219848633,-0.2837563157081604
1715439349058470700,4.350470703125,0.046662330627441406,-0.17203688621520996,-0.2597380578517914
1715439349068476400,4.360476318359375,0.1523284912109375,-0.1798691749572754,-0.23124593496322632
1715439349078482400,4.370482421875,0.18127727508544922,-0.15112876892089844,-0.15146267414093018
1715439349088488400,4.380488525390625,0.21001911163330078,-0.1426994800567627,-0.06423699855804443
1715439349098494200,4.390494140625,0.26206493377685547,-0.15432119369506836,-0.03177940845489502
1715439349108500200,4.400500244140625,0.26645469665527344,-0.1341557502746582,0.031208693981170654
1715439349118506200,4.41050634765625,0.20501041412353516,-0.12449431419372559,0.10618901252746582
1715439349128512000,4.420511962890625,0.18230056762695312,-0.12002801895141602,0.16955876350402832
1715439349138518000,4.43051806640625,0.16474628448486328,-0.13497161865234375,0.15049859881401062
1715439349148524000,4.44052392578125,0.0909566879272461,-0.15450334548950195,0.15425172448158264
1715439349158529800,4.45052978515625,0.008774757385253906,-0.18728137016296387,0.13359054923057556
1715439349168535800,4.460535888671875,-0.01578235626220703,-0.18574857711791992,0.07997038960456848
1715439349178541800,4.470541748046875,0.03049182891845703,-0.16935110092163086,-0.01968938112258911
1715439349188547800,4.4805478515625,0.057089805603027344,-0.14818930625915527,-0.07024949789047241
1715439349198553600,4.4905537109375,0.1350555419921875,-0.13677215576171875,-0.16201764345169067
1715439349208559600,4.5005595703125,0.19314956665039062,-0.1264185905456543,-0.22851163148880005
1715439349218565600,4.510565673828125,0.1611042022705078,-0.11241030693054199,-0.19434422254562378
1715439349228571400,4.5205712890625,0.14394855499267578,-0.12283945083618164,-0.1318076252937317
1715439349238577400,4.530577392578125,0.15548992156982422,-0.11006736755371094,-0.08422303199768066
1715439349248583400,4.54058349609375,0.1058206558227539,-0.0887000560760498,-0.07946532964706421
1715439349258589200,4.550589111328125,0.0899658203125,-0.143021821975708,-0.046108365058898926
1715439349268595200,4.56059521484375,0.14505672454833984,-0.17779159545898438,-0.03689265251159668
1715439349278601200,4.570601318359375,0.16175079345703125,-0.17970633506774902,-0.060832858085632324
1715439349288607000,4.58060693359375,0.14067363739013672,-0.18688321113586426,-0.07480019330978394
1715439349298613000,4.590613037109375,0.15301132202148438,-0.17557930946350098,-0.05135083198547363
1715439349308619000,4.600618896484375,0.14182186126708984,-0.15601062774658203,-0.03846555948257446
1715439349318625000,4.610625,0.08860015869140625,-0.13281869888305664,-0.05487525463104248
1715439349328630800,4.620630859375,-0.015489578247070312,-0.11029911041259766,-0.10461294651031494
1715439349338636800,4.63063671875,-0.08499813079833984,-0.11612701416015625,-0.13997703790664673
1715439349348642800,4.640642822265625,-0.0828857421875,-0.10717940330505371,-0.18907219171524048
1715439349358648600,4.650648681640625,-0.062033653259277344,-0.08391499519348145,-0.25092917680740356
1715439349368654600,4.660654541015625,-0.03207969665527344,-0.08925724029541016,-0.24050915241241455
1715439349378660600,4.67066064453125,-0.03563880920410156,-0.07549858093261719,-0.18326061964035034
1715439349388666400,4.680666259765625,-0.08161163330078125,-0.04762554168701172,-0.14631444215774536
1715439349398672400,4.69067236328125,-0.1034231185913086,-0.015283584594726562,-0.14422565698623657
1715439349408678400,4.700678466796875,-0.1250762939453125,-0.011301517486572266,-0.12929898500442505
1715439349418684200,4.71068408203125,-0.13713741302490234,-0.020994186401367188,-0.12935906648635864
1715439349428690200,4.720690185546875,-0.13962841033935547,-0.03502154350280762,-0.1669313907623291
1715439349438696200,4.7306962890625,-0.1281757354736328,-0.024477720260620117,-0.2038770318031311
1715439349448702200,4.7407021484375,-0.0793914794921875,-0.018229007720947266,-0.21639323234558105
1715439349458708000,4.7507080078125,-0.012579917907714844,-0.021436452865600586,-0.23305141925811768
1715439349468714000,4.7607138671875,-0.017401695251464844,-0.01539301872253418,-0.23459464311599731
1715439349478720000,4.770719970703125,-0.0738534927368164,0.009078502655029297,-0.2643911838531494
1715439349488725800,4.780725830078125,-0.10129356384277344,0.03362393379211426,-0.27079927921295166
1715439349498731800,4.790731689453125,-0.12851715087890625,0.06317663192749023,-0.17885935306549072
1715439349508737800,4.80073779296875,-0.10849952697753906,0.04139065742492676,-0.1501360535621643
1715439349518743600,4.81074365234375,-0.07500076293945312,0.006776571273803711,-0.12732672691345215
1715439349528749600,4.82074951171875,-0.0045680999755859375,-0.026729822158813477,-0.07710295915603638
1715439349538755600,4.830755615234375,0.059950828552246094,-0.04070901870727539,-0.060637831687927246
1715439349548761300,4.84076123046875,0.1234731674194336,-0.05463218688964844,-0.09115332365036011
1715439349558767400,4.850767333984375,0.18146419525146484,-0.07383203506469727,-0.14924192428588867
1715439349568773400,4.8607734375,0.2152700424194336,-0.05134010314941406,-0.17747128009796143
1715439349578779400,4.870779296875,0.19707393646240234,-0.049071550369262695,-0.17115998268127441
1715439349588785200,4.88078515625,0.1465911865234375,-0.06670403480529785,-0.15428143739700317
1715439349598791200,4.890791259765625,0.10658645629882812,-0.0702359676361084,-0.09810727834701538
1715439349608797200,4.900797119140625,0.0768117904663086,-0.11611437797546387,0.0014889836311340332
1715439349618803000,4.910802978515625,0.04280662536621094,-0.14686942100524902,0.12360358238220215
1715439349628809000,4.92080908203125,0.02806568145751953,-0.14389705657958984,0.17678731679916382
1715439349638815000,4.93081494140625,0.03227806091308594,-0.13620257377624512,0.1992872655391693
1715439349648820700,4.94082080078125,0.01759052276611328,-0.1383821964263916,0.1731056571006775
1715439349658826800,4.95082666015625,-0.020463943481445312,-0.09340572357177734,0.0711631178855896
1715439349668832800,4.960832763671875,-0.06739616394042969,-0.04880166053771973,-0.04779767990112305
1715439349678838500,4.970838623046875,-0.04759693145751953,-0.032948970794677734,-0.1351495385169983
1715439349688844500,4.980844482421875,-0.02798748016357422,-0.026953697204589844,-0.22446084022521973
1715439349698850600,4.9908505859375,-0.03679466247558594,-0.04489946365356445,-0.23583370447158813
1715439349708856600,5.000856689453125,-0.04065704345703125,-0.057917118072509766,-0.20845305919647217
1715439349718862300,5.0108623046875,-0.025696754455566406,-0.07988214492797852,-0.15814876556396484
1715439349728868400,5.020868408203125,-0.01103973388671875,-0.09195947647094727,-0.05725884437561035
1715439349738874400,5.030874267578125,0.007933616638183594,-0.08953070640563965,0.035848259925842285
1715439349748880100,5.040880126953125,0.0028486251831054688,-0.09644961357116699,0.045077621936798096
1715439349758886100,5.05088623046875,0.025926589965820312,-0.0747995376586914,0.024290263652801514
1715439349768892200,5.06089208984375,0.08156490325927734,-0.04911923408508301,-0.011671304702758789
1715439349778898000,5.07089794921875,0.10344982147216797,-0.0577089786529541,-0.07201635837554932
1715439349788904000,5.080904052734375,0.06874656677246094,-0.08600807189941406,-0.0654178261756897
1715439349798910000,5.090909912109375,-0.007498741149902344,-0.10034394264221191,-0.08602213859558105
1715439349808916000,5.100916015625,-0.05884265899658203,-0.11450576782226562,-0.1100395917892456
1715439349818921700,5.110921630859375,-0.08580303192138672,-0.12341117858886719,-0.08560055494308472
1715439349828927700,5.120927734375,-0.05584526062011719,-0.11290788650512695,-0.02277618646621704
1715439349838933800,5.130933837890625,0.011394500732421875,-0.08839821815490723,0.021895766258239746
1715439349848939500,5.140939453125,0.077728271484375,-0.06956171989440918,0.019616007804870605
1715439349858945500,5.150945556640625,0.06780529022216797,-0.06097698211669922,0.017989933490753174
1715439349868951600,5.16095166015625,0.029793739318847656,-0.047721147537231445,0.035550713539123535
1715439349878957300,5.170957275390625,-0.045383453369140625,-0.019942045211791992,0.02504599094390869
1715439349888963300,5.18096337890625,-0.03960990905761719,-0.03387284278869629,-0.01409757137298584
1715439349898969300,5.19096923828125,0.027025222778320312,-0.028295516967773438,-0.03558260202407837
1715439349908975000,5.20097509765625,0.11603450775146484,-0.0465238094329834,-0.05809378623962402
1715439349918981000,5.210981201171875,0.1707773208618164,-0.060827016830444336,-0.0912122130393982
1715439349928987000,5.22098681640625,0.191925048828125,-0.06205272674560547,-0.09178721904754639
1715439349938993000,5.230992919921875,0.13294124603271484,-0.04551959037780762,-0.11158609390258789
1715439349948998700,5.24099853515625,0.0185394287109375,-0.043801307678222656,-0.0935407280921936
1715439349959004700,5.251004638671875,-0.07990264892578125,-0.07476544380187988,-0.0427095890045166
1715439349969010400,5.261010498046875,-0.13921833038330078,-0.08575797080993652,0.011765658855438232
1715439349979016400,5.271016357421875,-0.21200275421142578,-0.06237506866455078,-0.000550687313079834
1715439349989022200,5.281022216796875,-0.18507862091064453,-0.05673027038574219,-0.03593242168426514
1715439349999028200,5.2910283203125,-0.08813667297363281,-0.031464576721191406,-0.041432082653045654
1715439350009034000,5.301033935546875,-0.05872058868408203,-0.01565384864807129,-0.05001121759414673
1715439350019040000,5.3110400390625,-0.029737472534179688,-0.028182268142700195,-0.0758710503578186
1715439350029045800,5.321045654296875,-0.020000457763671875,-0.03590750694274902,-0.053671061992645264
1715439350039051800,5.3310517578125,-0.057608604431152344,-0.038575172424316406,-0.046482205390930176
1715439350049057500,5.3410576171875,-0.06190013885498047,-0.04046511650085449,-0.002703070640563965
1715439350059063600,5.3510634765625,0.01840686798095703,-0.04636096954345703,0.016178369522094727
1715439350069069300,5.3610693359375,0.1208953857421875,-0.03356289863586426,0.000607907772064209
1715439350079075300,5.371075439453125,0.14178848266601562,-0.03606104850769043,-0.05843883752822876
1715439350089081000,5.3810810546875,0.09187602996826172,-0.06287121772766113,-0.12186199426651001
1715439350099087000,5.391087158203125,-0.008908271789550781,-0.07534480094909668,-0.1461969017982483
1715439350109092900,5.4010927734375,-0.023278236389160156,-0.06379842758178711,-0.18827193975448608
1715439350119099000,5.411098876953125,0.0001811981201171875,-0.05209803581237793,-0.18234920501708984
1715439350129104600,5.421104736328125,0.05157661437988281,-0.06437921524047852,-0.12930148839950562
1715439350139110700,5.431110595703125,0.0598602294921875,-0.048631906509399414,-0.09588027000427246
1715439350149116400,5.441116455078125,0.03976631164550781,-0.04267120361328125,-0.0962020754814148
1715439350159122200,5.4511220703125,0.015280723571777344,-0.02279829978942871,-0.08775228261947632
1715439350169128200,5.461128173828125,0.028802871704101562,-0.007865428924560547,-0.04708051681518555
1715439350179134000,5.471134033203125,0.06093406677246094,-0.007299184799194336,-0.05414605140686035
1715439350189140000,5.481139892578125,0.09738731384277344,0.002191781997680664,-0.06555008888244629
1715439350199146000,5.49114599609375,0.11462974548339844,-0.017416715621948242,-0.052597224712371826
1715439350209152000,5.501152099609375,0.09414291381835938,-0.023155927658081055,-0.04361903667449951
1715439350219157800,5.51115771484375,0.055243492126464844,-0.04291796684265137,-0.06662797927856445
1715439350229163800,5.521163818359375,0.031108856201171875,-0.0480036735534668,-0.05090653896331787
1715439350239169800,5.531169677734375,0.049736976623535156,-0.043373823165893555,-0.03489530086517334
1715439350249175600,5.541175537109375,0.04458808898925781,-0.020171165466308594,-0.037632763385772705
1715439350259181600,5.551181640625,-0.035849571228027344,0.007353067398071289,-0.0879088044166565
1715439350269187600,5.5611875,-0.0774679183959961,0.020853757858276367,-0.1378796100616455
1715439350279193300,5.571193359375,-0.03849220275878906,0.011132240295410156,-0.11637681722640991
1715439350289199400,5.581199462890625,0.0233917236328125,-0.00316619873046875,-0.06688886880874634
1715439350299205400,5.591205322265625,0.032553672790527344,-0.008307456970214844,-0.013915598392486572
1715439350309211100,5.601211181640625,-0.005513191223144531,-0.02295708656311035,-0.009428799152374268
1715439350319217200,5.611217041015625,-0.00539398193359375,-0.05608987808227539,0.04560887813568115
1715439350329223200,5.62122314453125,0.004164695739746094,-0.06998276710510254,0.09480959177017212
1715439350339229200,5.631229248046875,-0.03353595733642578,-0.05537009239196777,0.04419088363647461
1715439350349235000,5.64123486328125,-0.05657005310058594,-0.06423020362854004,-0.0009215474128723145
1715439350359241000,5.651240966796875,-0.032169342041015625,-0.03968334197998047,-0.016432583332061768
1715439350369247000,5.6612470703125,-0.012805938720703125,-0.020368576049804688,-0.07812714576721191
1715439350379252700,5.671252685546875,-0.04073619842529297,-0.03918099403381348,-0.07652002573013306
1715439350389258800,5.6812587890625,-0.08701324462890625,-0.047978878021240234,-0.05947279930114746
1715439350399264800,5.6912646484375,-0.06665515899658203,-0.0469365119934082,-0.0707431435585022
1715439350409270500,5.7012705078125,-0.05616283416748047,-0.04562807083129883,-0.04931718111038208
1715439350419276500,5.711276611328125,-0.0224609375,-0.058077096939086914,-0.014846205711364746
1715439350429282600,5.721282470703125,0.03885936737060547,-0.05610084533691406,0.013717889785766602
1715439350439288300,5.731288330078125,0.056781768798828125,-0.040230512619018555,0.026983439922332764
1715439350449294300,5.74129443359375,0.06966876983642578,-0.043665409088134766,0.005945742130279541
1715439350459300400,5.75130029296875,0.09188079833984375,-0.038237810134887695,0.027084708213806152
1715439350469306400,5.761306396484375,0.071533203125,-0.04772305488586426,0.04316246509552002
1715439350479312100,5.77131201171875,0.04689598083496094,-0.06676554679870605,0.06368076801300049
1715439350489318100,5.781318115234375,0.041538238525390625,-0.07143497467041016,0.07464599609375
1715439350499324200,5.79132421875,0.055138587951660156,-0.09022951126098633,0.08089941740036011
1715439350509330000,5.801329833984375,0.049719810485839844,-0.10406494140625,0.10621553659439087
1715439350519336000,5.8113359375,0.03966331481933594,-0.09869217872619629,0.07957446575164795
1715439350529342000,5.821342041015625,0.03914356231689453,-0.08857893943786621,0.006072402000427246
1715439350539347700,5.83134765625,0.06692790985107422,-0.06921720504760742,-0.02793794870376587
1715439350549353700,5.841353759765625,0.11328887939453125,-0.06953978538513184,-0.06519973278045654
1715439350559359700,5.85135986328125,0.1497182846069336,-0.06117367744445801,-0.035056352615356445
1715439350569365800,5.86136572265625,0.1386585235595703,-0.0723876953125,-0.04722094535827637
1715439350579371500,5.87137158203125,0.13746929168701172,-0.07934904098510742,-0.034303903579711914
1715439350589377500,5.88137744140625,0.16009807586669922,-0.03981494903564453,0.06402355432510376
1715439350599383600,5.891383544921875,-0.005870819091796875,-0.0445561408996582,0.06366157531738281
1715439350609389300,5.901389404296875,-0.2635765075683594,-0.06763100624084473,0.046167612075805664
1715439350619395300,5.911395263671875,-0.28678131103515625,-0.08379340171813965,0.0050051212310791016
1715439350629401300,5.9214013671875,-0.168670654296875,-0.06563591957092285,-0.050120651721954346
1715439350639407000,5.931406982421875,-0.09028339385986328,-0.005417346954345703,-0.07732385396957397
1715439350649413000,5.9414130859375,-0.14977169036865234,0.025511503219604492,-0.13275766372680664
1715439350659419100,5.951419189453125,-0.20357799530029297,-0.00015807151794433594,-0.17655247449874878
1715439350669425000,5.9614248046875,-0.23784542083740234,-0.010342836380004883,-0.14342641830444336
1715439350679431000,5.971430908203125,-0.25299072265625,-0.004888296127319336,-0.19450163841247559
1715439350689437000,5.98143701171875,-0.15990734100341797,0.025536298751831055,-0.17287319898605347
1715439350699443000,5.99144287109375,-0.00262451171875,0.02294611930847168,-0.13813674449920654
1715439350709448700,6.00144873046875,0.0956125259399414,0.015270709991455078,-0.06207895278930664
1715439350719454700,6.011454833984375,0.14527416229248047,-0.00688481330871582,0.05063354969024658
1715439350729460700,6.021460693359375,0.1801776885986328,-0.03873252868652344,0.14762967824935913
1715439350739466500,6.031466552734375,0.17228031158447266,-0.047193288803100586,0.20023861527442932
1715439350749472500,6.041472412109375,0.13161087036132812,-0.06532025337219238,0.23244333267211914
1715439350759478500,6.051478515625,0.13873863220214844,-0.08792591094970703,0.2266257405281067
1715439350769484300,6.061484375,0.13646602630615234,-0.08703351020812988,0.15527868270874023
1715439350779490300,6.071490234375,0.09204864501953125,-0.06316995620727539,0.06694447994232178
1715439350789496300,6.081496337890625,0.03903007507324219,-0.05393719673156738,-0.019247055053710938
1715439350799502000,6.091502197265625,0.010378837585449219,-0.05400395393371582,-0.08026725053787231
1715439350809508000,6.101508056640625,0.01515960693359375,-0.05391836166381836,-0.10209161043167114
1715439350819514000,6.11151416015625,0.015213966369628906,-0.03517508506774902,-0.09980553388595581
1715439350829520100,6.12152001953125,0.04357433319091797,-0.016806840896606445,-0.06874996423721313
1715439350839526000,6.13152587890625,0.024461746215820312,-0.02272820472717285,-0.038671672344207764
1715439350849532000,6.141531982421875,-0.013199806213378906,-0.056830644607543945,-0.009700357913970947
1715439350859538000,6.151537841796875,-0.022009849548339844,-0.05260324478149414,0.009343981742858887
1715439350869543700,6.161543701171875,-0.011926651000976562,-0.07178282737731934,0.022890925407409668
1715439350879549700,6.1715498046875,-0.0019922256469726562,-0.06716442108154297,0.0409550666809082
1715439350889555700,6.1815556640625,-0.011090278625488281,-0.06710457801818848,0.030872583389282227
1715439350899561500,6.1915615234375,0.012951850891113281,-0.06230902671813965,0.049715280532836914
1715439350909567500,6.2015673828125,-0.024511337280273438,-0.0673673152923584,0.035444557666778564
1715439350919573500,6.211573486328125,-0.07557010650634766,-0.05317330360412598,0.030763626098632812
1715439350929579300,6.221579345703125,-0.09770965576171875,-0.024650096893310547,0.006391704082489014
1715439350939585300,6.231585205078125,-0.09143829345703125,-0.03366661071777344,-0.037078261375427246
1715439350949591300,6.24159130859375,-0.033545494079589844,-0.03302288055419922,-0.02865314483642578
1715439350959597300,6.251597412109375,-0.028398513793945312,-0.023107051849365234,-0.01599287986755371
1715439350969603000,6.26160302734375,-0.013946533203125,-0.03673505783081055,0.0014293193817138672
1715439350979609000,6.271609130859375,0.009682655334472656,-0.05016303062438965,0.03728848695755005
1715439350989615000,6.281614990234375,-0.009405136108398438,-0.058785438537597656,0.03046363592147827
1715439350999620900,6.291620849609375,0.009495735168457031,-0.07178711891174316,0.03391265869140625
1715439351009627000,6.301626953125,0.042168617248535156,-0.06072354316711426,0.033219873905181885
1715439351019633000,6.3116328125,0.02721691131591797,-0.059247493743896484,0.027983248233795166
1715439351029638700,6.321638671875,0.03132152557373047,-0.043649911880493164,-0.005735576152801514
1715439351039644700,6.331644775390625,0.05890083312988281,-0.01898789405822754,-0.053389549255371094
1715439351049650700,6.341650634765625,0.05307960510253906,0.00036215782165527344,-0.1101377010345459
1715439351059656400,6.351656494140625,0.0850839614868164,0.004944801330566406,-0.14748454093933105
1715439351069662500,6.361662353515625,0.10258960723876953,-0.009929180145263672,-0.19341492652893066
1715439351079668500,6.37166845703125,0.11531639099121094,-0.02050614356994629,-0.15787780284881592
1715439351089674500,6.381674560546875,0.07147598266601562,-0.0078046321868896484,-0.15074747800827026
1715439351099680300,6.39168017578125,0.033217430114746094,-0.014617681503295898,-0.09641975164413452
1715439351109686300,6.401686279296875,-0.02319622039794922,-0.016750335693359375,0.022960662841796875
1715439351119692300,6.4116923828125,-0.0835409164428711,-0.013726234436035156,0.036017656326293945
1715439351129698000,6.421697998046875,-0.12901782989501953,-0.019457578659057617,0.10902583599090576
1715439351139704000,6.4317041015625,-0.12223148345947266,-0.03355717658996582,0.16620874404907227
1715439351149710000,6.4417099609375,-0.04506969451904297,-0.032834529876708984,0.19393077492713928
1715439351159715800,6.4517158203125,-0.04458427429199219,-0.04604744911193848,0.19765174388885498
1715439351169721900,6.461721923828125,-0.030132293701171875,-0.044356346130371094,0.08824688196182251
1715439351179728000,6.471727783203125,0.07354354858398438,-0.03785848617553711,0.05650836229324341
1715439351189733600,6.481733642578125,0.11916065216064453,-0.03666186332702637,-0.030553817749023438
1715439351199739600,6.49173974609375,0.1030588150024414,-0.02679133415222168,-0.11998486518859863
1715439351209745700,6.50174560546875,0.09216117858886719,-0.03657698631286621,-0.11299806833267212
1715439351219751700,6.511751708984375,0.048705101013183594,-0.04683113098144531,-0.09594756364822388
1715439351229757400,6.52175732421875,-0.012900352478027344,-0.05684828758239746,-0.05597126483917236
1715439351239763500,6.531763427734375,-0.021818161010742188,-0.05688977241516113,0.01116490364074707
1715439351249769500,6.54176953125,0.021073341369628906,-0.07064461708068848,0.03445988893508911
1715439351259775200,6.551775146484375,0.04432868957519531,-0.08406376838684082,0.06591421365737915
1715439351269781200,6.56178125,0.05307769775390625,-0.07378888130187988,0.09194380044937134
1715439351279787300,6.571787353515625,0.0663766860961914,-0.0731818675994873,0.07464462518692017
1715439351289793000,6.58179296875,0.09836292266845703,-0.05884408950805664,0.09485757350921631
1715439351299799000,6.591799072265625,0.10171127319335938,-0.049925804138183594,0.10562241077423096
1715439351309805000,6.60180517578125,0.08154106140136719,-0.027216672897338867,0.0507393479347229
1715439351319811000,6.61181103515625,0.0665292739868164,-0.024006366729736328,0.04440873861312866
1715439351329816800,6.62181689453125,0.023634910583496094,-0.006916999816894531,-0.02200460433959961
1715439351339822800,6.63182275390625,-0.02328014373779297,0.0006504058837890625,-0.08228409290313721
1715439351349828900,6.641828857421875,-0.03179168701171875,-0.0010523796081542969,-0.06583034992218018
1715439351359834600,6.651834716796875,0.030447006225585938,-0.011951208114624023,-0.044470906257629395
1715439351369840600,6.661840576171875,0.05412769317626953,-0.013756275177001953,-0.06096386909484863
1715439351379846700,6.6718466796875,0.03048992156982422,-0.011341094970703125,-0.053321123123168945
1715439351389852400,6.681852294921875,-0.01151275634765625,-0.023391008377075195,-0.022362887859344482
1715439351399858400,6.6918583984375,-0.06227874755859375,-0.04455113410949707,0.017224133014678955
1715439351409864400,6.701864501953125,-0.10772418975830078,-0.05991244316101074,0.08857500553131104
1715439351419870200,6.7118701171875,-0.07740306854248047,-0.05061078071594238,0.10551780462265015
1715439351429876200,6.721876220703125,-0.014827728271484375,-0.055145263671875,0.10213810205459595
1715439351439882200,6.73188232421875,0.03733062744140625,-0.07410240173339844,0.08850938081741333
1715439351449888300,6.74188818359375,-0.005450248718261719,-0.07430815696716309,0.023213505744934082
1715439351459894000,6.75189404296875,-0.10871696472167969,-0.04619240760803223,-0.04523974657058716
1715439351469900000,6.761900146484375,-0.15865802764892578,-0.03183317184448242,-0.10258013010025024
1715439351479906000,6.771906005859375,-0.14673995971679688,-0.002643585205078125,-0.13905131816864014
1715439351489911800,6.781911865234375,-0.1493234634399414,0.022187471389770508,-0.18357884883880615
1715439351499917800,6.791917724609375,-0.0861053466796875,0.042632102966308594,-0.16089004278182983
1715439351509923800,6.801923828125,-0.01922607421875,0.05819225311279297,-0.1236923336982727
1715439351519929600,6.8119296875,0.023056983947753906,0.03090214729309082,-0.06352555751800537
1715439351529935600,6.821935546875,0.04582977294921875,-0.005516529083251953,0.023626983165740967
1715439351539941600,6.831941650390625,0.077667236328125,-0.022632837295532227,0.08562833070755005
1715439351549947400,6.841947509765625,0.07607460021972656,-0.04931139945983887,0.11281025409698486
1715439351559953400,6.851953369140625,0.03667926788330078,-0.05171656608581543,0.10062634944915771
1715439351569959400,6.86195947265625,0.040205955505371094,-0.04440593719482422,0.06915587186813354
1715439351579965400,6.87196533203125,0.04368305206298828,-0.05148959159851074,0.018891870975494385
1715439351589971200,6.88197119140625,0.0047130584716796875,-0.03499889373779297,-0.031079351902008057
1715439351599977200,6.891977294921875,0.013459205627441406,-0.013895273208618164,-0.06567484140396118
1715439351609983200,6.901983154296875,0.036322593688964844,-0.021627187728881836,-0.098533034324646
1715439351619989000,6.911989013671875,0.03070545196533203,-0.020064353942871094,-0.09189444780349731
1715439351629995000,6.9219951171875,0.034697532653808594,-0.02338123321533203,-0.07974874973297119
1715439351640001000,6.9320009765625,0.029359817504882812,-0.03641152381896973,-0.02454543113708496
1715439351650006800,6.9420068359375,0.01939678192138672,-0.05384707450866699,-0.002976357936859131
1715439351660012800,6.9520126953125,-0.0046520233154296875,-0.061289310455322266,0.026900053024291992
1715439351670018800,6.962018798828125,0.02806377410888672,-0.06360030174255371,0.050673484802246094
1715439351680024600,6.972024658203125,0.0696115493774414,-0.06595206260681152,0.06371700763702393
1715439351690030600,6.982030517578125,0.12937545776367188,-0.07354426383972168,0.06122809648513794
1715439351700036600,6.99203662109375,0.1223897933959961,-0.08660197257995605,0.04831963777542114
1715439351710042600,7.002042724609375,0.0779714584350586,-0.10472941398620605,0.020981192588806152
1715439351720048400,7.01204833984375,0.020163536071777344,-0.09912467002868652,-0.02999657392501831
1715439351730054400,7.022054443359375,-0.008474349975585938,-0.0887441635131836,-0.051932454109191895
1715439351740060400,7.032060302734375,-0.027251243591308594,-0.0736544132232666,-0.016806185245513916
1715439351750066200,7.042066162109375,-0.03160858154296875,-0.011549711227416992,-0.09956091642379761
1715439351760072200,7.052072265625,-0.012310981750488281,-0.01655101776123047,-0.07735943794250488
1715439351770078200,7.062078125,-0.002704620361328125,-0.017078399658203125,0.009814321994781494
1715439351780084000,7.072083984375,-0.04028892517089844,-0.022609949111938477,-0.022605180740356445
1715439351790090000,7.082090087890625,-0.01598358154296875,-0.04219937324523926,0.035670697689056396
1715439351800096000,7.092095947265625,0.022179603576660156,-0.03349614143371582,0.07509124279022217
1715439351810101800,7.102101806640625,0.06454658508300781,-0.030019521713256836,0.10023343563079834
1715439351820107800,7.112107666015625,0.04509162902832031,-0.022253036499023438,0.10137289762496948
1715439351830113800,7.12211376953125,-0.016343116760253906,-0.019579648971557617,0.10257905721664429
1715439351840119800,7.132119873046875,-0.09100914001464844,-0.016502857208251953,0.09887009859085083
1715439351850125600,7.14212548828125,-0.13173961639404297,0.011023998260498047,0.019653022289276123
1715439351860131600,7.152131591796875,-0.06851959228515625,0.0016376972198486328,-0.04403764009475708
1715439351870137600,7.1621376953125,0.050144195556640625,0.002024412155151367,-0.06820052862167358
1715439351880143400,7.172143310546875,0.06340217590332031,-0.0027267932891845703,-0.08175307512283325
1715439351890149400,7.1821494140625,0.029422760009765625,-0.0075225830078125,-0.0756540298461914
1715439351900155400,7.1921552734375,0.014800071716308594,-0.016666412353515625,-0.0691382884979248
1715439351910161200,7.2021611328125,0.04273223876953125,-0.015953779220581055,-0.039041876792907715
1715439351920167200,7.212167236328125,0.07492733001708984,-0.010631799697875977,-0.004785001277923584
1715439351930173200,7.222173095703125,0.08779430389404297,-0.03393697738647461,0.004812955856323242
1715439351940179000,7.232178955078125,0.12878036499023438,-0.05723404884338379,0.01864027976989746
1715439351950185000,7.24218505859375,0.15036296844482422,-0.05708050727844238,-0.01977705955505371
1715439351960191000,7.25219091796875,0.17645645141601562,-0.07176017761230469,-0.02501964569091797
1715439351970197000,7.262197021484375,0.1647348403930664,-0.07297348976135254,-0.03882056474685669
1715439351980202800,7.27220263671875,0.10164642333984375,-0.04683876037597656,-0.08555769920349121
1715439351990208800,7.282208740234375,0.044342041015625,-0.06375336647033691,-0.047419846057891846
1715439352000214800,7.29221484375,0.016355514526367188,-0.06186962127685547,-0.014207184314727783
1715439352010220500,7.302220458984375,-0.03461647033691406,-0.05553865432739258,-0.004625678062438965
1715439352020226600,7.3122265625,-0.10364532470703125,-0.05844855308532715,0.009524047374725342
1715439352030232600,7.322232666015625,-0.16701221466064453,-0.06042313575744629,0.04762524366378784
1715439352040238300,7.33223828125,-0.1636791229248047,-0.03763604164123535,0.03864943981170654
1715439352050244400,7.342244384765625,-0.1040802001953125,-0.03335905075073242,0.03936612606048584
1715439352060250400,7.35225048828125,-0.06909751892089844,-0.038259267807006836,0.03541529178619385
1715439352070256400,7.36225634765625,-0.05840778350830078,-0.014209985733032227,0.05034506320953369
1715439352080262100,7.37226220703125,0.017884254455566406,-0.018583059310913086,0.02609574794769287
1715439352090268200,7.38226806640625,0.06944751739501953,-0.03278613090515137,0.034467101097106934
1715439352100274200,7.392274169921875,0.05910491943359375,-0.02870321273803711,0.046663641929626465
1715439352110280000,7.402280029296875,0.015969276428222656,-0.04381561279296875,0.010202169418334961
1715439352120286000,7.412285888671875,-0.012317657470703125,-0.049370527267456055,-0.007269442081451416
1715439352130292000,7.4222919921875,-0.049605369567871094,-0.045128583908081055,-0.0005616545677185059
1715439352140297700,7.432297607421875,-0.06281089782714844,-0.031147241592407227,-0.012427985668182373
1715439352150303700,7.4423037109375,-0.052437782287597656,-0.011893033981323242,-0.014180898666381836
1715439352160309800,7.452309814453125,-0.01403045654296875,-0.002071857452392578,-0.010571181774139404
1715439352170315500,7.4623154296875,0.0049228668212890625,-0.0017316341400146484,0.003192603588104248
1715439352180321500,7.472321533203125,0.01409912109375,-0.010503292083740234,0.017378389835357666
1715439352190327600,7.48232763671875,0.03253746032714844,-0.04256033897399902,0.0459057092666626
1715439352200333600,7.49233349609375,0.05536174774169922,-0.040993690490722656,0.02720463275909424
1715439352210339300,7.50233935546875,0.09201812744140625,-0.03974580764770508,0.004233121871948242
1715439352220345300,7.512345458984375,0.09050655364990234,-0.048334598541259766,-0.02296435832977295
1715439352230351400,7.522351318359375,0.06087017059326172,-0.05247044563293457,-0.021556496620178223
1715439352240357000,7.532357177734375,0.04113960266113281,-0.051816701889038086,0.012741923332214355
1715439352250363100,7.542363037109375,0.07362651824951172,-0.05154275894165039,0.046402692794799805
1715439352260369200,7.552369140625,0.039811134338378906,-0.06147027015686035,0.06926804780960083
1715439352270375000,7.562375,-0.06409931182861328,-0.08064961433410645,0.07241928577423096
1715439352280381000,7.572380859375,-0.12874221801757812,-0.08018827438354492,0.07546472549438477
1715439352290387000,7.582386962890625,-0.12662792205810547,-0.06474161148071289,0.012405633926391602
1715439352300392700,7.592392822265625,-0.10596656799316406,-0.0016169548034667969,-0.08297514915466309
1715439352310398700,7.602398681640625,-0.048175811767578125,-0.000024557113647460938,-0.13909155130386353
1715439352320404700,7.61240478515625,-0.000759124755859375,0.03934979438781738,-0.16529089212417603
1715439352330410800,7.62241064453125,0.04123210906982422,0.049773454666137695,-0.16650092601776123
1715439352340416500,7.63241650390625,0.10617256164550781,0.03607463836669922,-0.09708809852600098
1715439352350422500,7.642422607421875,0.118408203125,0.01714611053466797,0.022478044033050537
1715439352360428500,7.652428466796875,0.06931495666503906,-0.011421442031860352,0.059075236320495605
1715439352370434300,7.662434326171875,0.0445404052734375,-0.03473162651062012,0.10880956053733826
1715439352380440300,7.6724404296875,0.05789756774902344,-0.057880401611328125,0.11986687779426575
1715439352390446300,7.6824462890625,0.023942947387695312,-0.0477297306060791,0.08810308575630188
1715439352400452000,7.6924521484375,-0.051865577697753906,-0.05647158622741699,0.0660395622253418
1715439352410458000,7.7024580078125,-0.05587005615234375,-0.04584097862243652,0.02578192949295044
1715439352420464000,7.712464111328125,-0.06453990936279297,-0.030509233474731445,-0.004021763801574707
1715439352430470000,7.722469970703125,-0.05899524688720703,-0.0622553825378418,-0.009546339511871338
1715439352440476000,7.732475830078125,-0.05356121063232422,-0.04150223731994629,-0.033321380615234375
1715439352450482000,7.74248193359375,-0.10494136810302734,-0.015530109405517578,-0.06600385904312134
1715439352460488000,7.752488037109375,-0.009637832641601562,-0.060150861740112305,-0.046579182147979736
1715439352470493700,7.76249365234375,0.0653533935546875,-0.03389739990234375,-0.05612838268280029
1715439352480499700,7.772499755859375,-0.002162933349609375,-0.022429704666137695,-0.024144113063812256
1715439352490505700,7.782505615234375,-0.11587333679199219,-0.03409147262573242,0.001328587532043457
1715439352500511500,7.792511474609375,-0.1056985855102539,-0.039548635482788086,0.024808526039123535
1715439352510517500,7.802517578125,-0.0063953399658203125,-0.049201011657714844,0.06103229522705078
1715439352520523500,7.8125234375,0.09134864807128906,-0.06839108467102051,0.07338717579841614
1715439352530529300,7.822529296875,0.1453571319580078,-0.0551753044128418,0.04376089572906494
1715439352540535300,7.832535400390625,0.15166282653808594,-0.061922550201416016,0.038915395736694336
1715439352550541300,7.842541259765625,0.1723003387451172,-0.06936049461364746,0.04062819480895996
1715439352560547000,7.852547119140625,0.14586925506591797,-0.044718027114868164,0.006413877010345459
1715439352570553000,7.862552978515625,0.08232688903808594,-0.016088247299194336,-0.02658367156982422
1715439352580559000,7.87255908203125,0.06704044342041016,-0.007075309753417969,-0.03962373733520508
1715439352590565000,7.882565185546875,0.019044876098632812,-0.02638101577758789,-0.033290982246398926
1715439352600571000,7.89257080078125,0.028342247009277344,-0.026430606842041016,-0.03618127107620239
1715439352610577000,7.902576904296875,0.05154609680175781,-0.049916982650756836,-0.006736278533935547
1715439352620583000,7.9125830078125,0.09316444396972656,-0.07299542427062988,-0.006554365158081055
1715439352630588700,7.922588623046875,0.14832401275634766,-0.09616684913635254,-0.016087651252746582
1715439352640594700,7.9325947265625,0.14624786376953125,-0.0773630142211914,-0.05406111478805542
1715439352650600700,7.9426005859375,0.09725761413574219,-0.09696388244628906,-0.04852938652038574
1715439352660606500,7.9526064453125,0.07749557495117188,-0.08850288391113281,-0.07092010974884033
1715439352670612500,7.962612548828125,0.020536422729492188,-0.07129931449890137,-0.0646432638168335
1715439352680618500,7.972618408203125,-0.06365585327148438,-0.05462193489074707,-0.0677720308303833
1715439352690624300,7.982624267578125,-0.13716793060302734,-0.03304171562194824,-0.047637343406677246
1715439352700630300,7.99263037109375,-0.14371490478515625,-0.015946388244628906,-0.014191627502441406
