time,seconds_elapsed,z,y,x
1717513031569289500,0.11228955078125,-0.029809951782226562,0.014325276017189026,-0.00504060834646225
1717513031579300000,0.122300048828125,-0.02684497833251953,0.023183360695838928,-0.009735450148582458
1717513031589311700,0.132311767578125,-0.024419784545898438,0.018315009772777557,-0.014197314158082008
1717513031599323600,0.14232373046875,-0.018012046813964844,0.014004938304424286,-0.005236579105257988
1717513031609336000,0.152336181640625,-0.025482177734375,0.014543943107128143,-0.010165492072701454
1717513031619348500,0.162348388671875,-0.010338783264160156,0.010684311389923096,-0.014802655205130577
1717513031629358300,0.1723583984375,-0.014134407043457031,0.016074545681476593,-0.0013295337557792664
1717513031639364900,0.18236474609375,-0.01775646209716797,0.012319274246692657,-0.01114967092871666
1717513031649371400,0.192371337890625,-0.00771331787109375,0.017747551202774048,-0.011422289535403252
1717513031659378000,0.2023779296875,-0.016344070434570312,0.022836558520793915,-0.0071969833225011826
1717513031669384400,0.212384521484375,-0.006426811218261719,0.023291438817977905,-0.021361781284213066
1717513031679391000,0.222390869140625,-0.010669708251953125,0.014690257608890533,-0.012032901868224144
1717513031689397500,0.2323974609375,-0.0056171417236328125,0.033897675573825836,-0.01249925047159195
1717513031699404000,0.242404052734375,-0.019089698791503906,0.024884551763534546,-0.01744323968887329
1717513031709410600,0.25241064453125,-0.01369476318359375,0.025475092232227325,-0.013047870248556137
1717513031719416800,0.262416748046875,-0.013139724731445312,0.016911648213863373,-0.01344841904938221
1717513031729423400,0.27242333984375,-0.008031845092773438,0.022510424256324768,-0.013857021927833557
1717513031739430000,0.282429931640625,-0.0031337738037109375,0.023325644433498383,-0.01437307707965374
1717513031749436400,0.2924365234375,-0.012255668640136719,0.02885766327381134,-0.014789409935474396
1717513031759443000,0.30244287109375,-0.011832237243652344,0.03413015604019165,-0.015211865305900574
1717513031769449500,0.312449462890625,-0.0021924972534179688,0.0253944993019104,-0.011015845462679863
1717513031779456000,0.3224560546875,-0.0067615509033203125,0.026237837970256805,-0.020859165117144585
1717513031789462500,0.332462646484375,-0.006557464599609375,0.03171706199645996,-0.011872369796037674
1717513031799469000,0.342468994140625,-0.001728057861328125,0.03241930902004242,-0.017196794971823692
1717513031809475600,0.3524755859375,-0.010976791381835938,0.028590507805347443,-0.017631523311138153
1717513031819482000,0.362482177734375,-0.010667800903320312,0.034093745052814484,-0.013422055169939995
1717513031829488600,0.372488525390625,-0.0057239532470703125,0.020760834217071533,-0.023299220949411392
1717513031839495200,0.3824951171875,-0.0009222030639648438,0.045160457491874695,-0.009541962295770645
1717513031849501700,0.392501708984375,-0.014886856079101562,0.03632260859012604,-0.014902010560035706
1717513031859508000,0.402508056640625,-0.0005207061767578125,0.03706878423690796,-0.02002895064651966
1717513031869514500,0.412514404296875,-0.0005207061767578125,0.03782151639461517,-0.020475000143051147
1717513031879521000,0.42252099609375,-0.0005197525024414062,0.03858031705021858,-0.020923366770148277
1717513031889527600,0.432527587890625,-0.009862899780273438,0.03944702446460724,-0.02127205953001976
1717513031899534000,0.4425341796875,-0.0002918243408203125,0.04021386057138443,-0.021728213876485825
1717513031909540600,0.45254052734375,-0.004974365234375,0.03173448517918587,-0.031436361372470856
1717513031919547100,0.462547119140625,-0.00019359588623046875,0.03740091621875763,-0.02232578583061695
1717513031929553700,0.4725537109375,0.0044803619384765625,0.033699456602334976,-0.022793184965848923
1717513031939560200,0.482560302734375,-0.00031280517578125,0.044045332819223404,-0.02326168119907379
1717513031949566700,0.492566650390625,-0.005003929138183594,0.04013235121965408,-0.014358150772750378
1717513031959573200,0.5025732421875,0.004466056823730469,0.04100770130753517,-0.019609708338975906
1717513031969579800,0.512579833984375,-0.009708404541015625,0.046676572412252426,-0.024865470826625824
1717513031979586300,0.52258642578125,-0.004832267761230469,0.05204566940665245,-0.025333814322948456
1717513031989592800,0.5325927734375,-0.009442329406738281,0.04334971308708191,-0.030497610569000244
1717513031999599400,0.542599365234375,0.00012111663818359375,0.05362304300069809,-0.026180632412433624
1717513032009606000,0.55260595703125,-0.004589080810546875,0.04973110929131508,-0.026550348848104477
1717513032019612400,0.5626123046875,0.0001850128173828125,0.0505257323384285,-0.01762573979794979
1717513032029619000,0.572618896484375,0.00017261505126953125,0.051323141902685165,-0.027675319463014603
1717513032039625500,0.58262548828125,-0.004542350769042969,0.04742039367556572,-0.023445893079042435
1717513032049632300,0.59263232421875,0.000232696533203125,0.048305634409189224,-0.023899363353848457
1717513032059638800,0.602638671875,-0.004486083984375,0.04929368942975998,-0.019749712198972702
1717513032069645300,0.612645263671875,0.0002880096435546875,0.05017642676830292,-0.034608446061611176
1717513032079651800,0.62265185546875,0.00498199462890625,0.05587073042988777,-0.03500042483210564
1717513032089658400,0.632658447265625,0.00018215179443359375,0.0566582977771759,-0.04009446129202843
1717513032099665000,0.642664794921875,0.00017070770263671875,0.05272414907813072,-0.030977802351117134
1717513032109671400,0.65267138671875,-0.0045490264892578125,0.053667426109313965,-0.026721669360995293
1717513032119678200,0.66267822265625,0.00022792816162109375,0.05920032411813736,-0.03195365145802498
1717513032129684700,0.672684814453125,0.0002155303955078125,0.06003561615943909,-0.03249349445104599
1717513032139691300,0.682691162109375,0.0002040863037109375,0.06075379624962807,-0.028212063014507294
1717513032149697800,0.69269775390625,-0.00922393798828125,0.056751418858766556,-0.02871057763695717
1717513032159704300,0.702704345703125,-0.004368782043457031,0.05281573534011841,-0.029200758785009384
1717513032169710800,0.7127109375,0.00040531158447265625,0.05846607685089111,-0.03449460119009018
1717513032179717400,0.72271728515625,0.00039196014404296875,0.06391900777816772,-0.03488835319876671
1717513032189724200,0.73272412109375,-0.004329681396484375,0.05976061522960663,-0.03988087922334671
1717513032199730700,0.742730712890625,-0.008973121643066406,0.06990057229995728,-0.040081582963466644
1717513032209737200,0.7527373046875,0.00058746337890625,0.061037126928567886,-0.030964622274041176
1717513032219743700,0.76274365234375,0.0005712509155273438,0.061738599091768265,-0.036125753074884415
1717513032229750300,0.772750244140625,0.0005559921264648438,0.06703373044729233,-0.03649225831031799
1717513032239756800,0.7827568359375,0.005249977111816406,0.06763526797294617,-0.041561245918273926
1717513032249763300,0.792763427734375,0.0004482269287109375,0.0635182112455368,-0.04183715209364891
1717513032259769900,0.802769775390625,0.00043487548828125,0.06888696551322937,-0.037399861961603165
1717513032269776600,0.812776611328125,0.009839057922363281,0.06474905461072922,-0.03774511069059372
1717513032279783200,0.822783203125,0.00025272369384765625,0.0653887391090393,-0.04268995672464371
1717513032289789700,0.832789794921875,0.00495147705078125,0.06130917742848396,-0.033529844135046005
1717513032299796200,0.842796142578125,0.004864692687988281,0.07142341136932373,-0.03393959626555443
1717513032309802800,0.852802734375,-0.004639625549316406,0.06734655797481537,-0.03434251993894577
1717513032319809300,0.862809326171875,0.0048503875732421875,0.06804624944925308,-0.03473870828747749
1717513032329815800,0.87281591796875,0.004764556884765625,0.06863103806972504,-0.035025037825107574
1717513032339822600,0.882822509765625,-0.00002765655517578125,0.07872658967971802,-0.04011872038245201
1717513032349829000,0.8928291015625,0.00467681884765625,0.07442479580640793,-0.03560677915811539
1717513032359835600,0.902835693359375,-0.00011444091796875,0.07019472122192383,-0.04069049283862114
1717513032369842200,0.91284228515625,-0.0001163482666015625,0.06603512167930603,-0.04098061844706535
1717513032379848700,0.9228486328125,-0.000118255615234375,0.07136207818984985,-0.045974746346473694
1717513032389855200,0.932855224609375,-0.0001201629638671875,0.07660026103258133,-0.04146844148635864
1717513032399861800,0.94286181640625,-0.004830360412597656,0.07704254239797592,-0.046454429626464844
1717513032409868300,0.952868408203125,-0.00004482269287109375,0.07276884466409683,-0.04664870724081993
1717513032419875000,0.962875,-0.0000476837158203125,0.07327497750520706,-0.0374225452542305
1717513032429881600,0.972881591796875,-0.00946807861328125,0.0784812793135643,-0.04247593879699707
1717513032439888100,0.98288818359375,0.000102996826171875,0.07418359071016312,-0.047445084899663925
1717513032449894700,0.992894775390625,0.0000972747802734375,0.06995753943920135,-0.04281096160411835
1717513032459901200,1.002901123046875,-0.00461578369140625,0.07521910220384598,-0.043065913021564484
1717513032469907700,1.01290771484375,0.009584426879882812,0.08039303869009018,-0.048025403171777725
1717513032479914200,1.022914306640625,-0.004703521728515625,0.07596024870872498,-0.038776252418756485
1717513032489921000,1.032921142578125,0.0047893524169921875,0.0763099417090416,-0.04380703717470169
1717513032499927600,1.042927490234375,-0.0000019073486328125,0.07675707340240479,-0.048753976821899414
1717513032509934000,1.05293408203125,-0.00000476837158203125,0.08190535753965378,-0.04420126602053642
1717513032519940600,1.062940673828125,0.004700660705566406,0.08225923776626587,-0.03962117061018944
1717513032529947100,1.072947021484375,-0.00008869171142578125,0.07789856940507889,-0.044534433633089066
1717513032539953700,1.08295361328125,-0.00479888916015625,0.07361065596342087,-0.04476063698530197
1717513032549960200,1.092960205078125,-0.0047206878662109375,0.0835200622677803,-0.0496918186545372
1717513032559966700,1.102966796875,0.004773139953613281,0.07913842797279358,-0.04041484743356705
1717513032569973500,1.112973388671875,0.00469207763671875,0.08424704521894455,-0.04541828855872154
1717513032579980000,1.12297998046875,-0.00009632110595703125,0.08456192910671234,-0.04562974348664284
1717513032589986600,1.132986572265625,-0.00009632110595703125,0.08958026021718979,-0.04573456197977066
1717513032599993000,1.1429931640625,-0.00009632110595703125,0.08049231767654419,-0.036523543298244476
1717513032609999600,1.15299951171875,0.004611968994140625,0.08086979389190674,-0.05100901797413826
1717513032620006100,1.163006103515625,0.004532814025878906,0.08124099671840668,-0.04652194678783417
1717513032630012700,1.1730126953125,0.00445556640625,0.08150266855955124,-0.04671485722064972
1717513032640019500,1.18301953125,-0.00032901763916015625,0.08176019042730331,-0.04209297150373459
1717513032650026000,1.19302587890625,-0.005034446716308594,0.0868251845240593,-0.04706843942403793
1717513032660032500,1.203032470703125,-0.000244140625,0.08720041066408157,-0.04725237190723419
1717513032670039000,1.2130390625,-0.00024127960205078125,0.07804883271455765,-0.04743310436606407
1717513032680045600,1.223045654296875,-0.004947662353515625,0.08327892422676086,-0.04750768467783928
1717513032690052000,1.233052001953125,-0.00015735626220703125,0.08831869065761566,-0.04758112505078316
1717513032700058600,1.24305859375,-0.00015544891357421875,0.08385726809501648,-0.04304799810051918
1717513032710065400,1.2530654296875,-0.004862785339355469,0.07947009801864624,-0.04329890385270119
1717513032720072000,1.263072021484375,0.004634857177734375,0.08938508480787277,-0.043545614928007126
1717513032730078500,1.273078369140625,-0.009569168090820312,0.0896143838763237,-0.04378821700811386
1717513032740085000,1.2830849609375,0.0047149658203125,0.08994309604167938,-0.0487353540956974
1717513032750091500,1.293091552734375,-0.0047817230224609375,0.08545437455177307,-0.048994604498147964
1717513032760098000,1.30309814453125,0.00000667572021484375,0.0857492983341217,-0.054061561822891235
1717513032770104600,1.3131044921875,0.0000057220458984375,0.09074777364730835,-0.04942027106881142
1717513032780111000,1.323111083984375,0.004714012145996094,0.09095435589551926,-0.04966818168759346
1717513032790118000,1.333117919921875,-0.004782676696777344,0.08655216544866562,-0.04980871081352234
1717513032800124400,1.34312451171875,0.0000057220458984375,0.09153727442026138,-0.04523828625679016
1717513032810131000,1.353130859375,0.0000057220458984375,0.09183396399021149,-0.05016122758388519
1717513032820137500,1.363137451171875,-0.004702568054199219,0.08260512351989746,-0.04568810015916824
1717513032830144000,1.37314404296875,0.00008487701416015625,0.092364601790905,-0.050603531301021576
1717513032840150500,1.383150634765625,0.00008392333984375,0.08312704414129257,-0.046123091131448746
1717513032850157000,1.393156982421875,0.004791259765625,0.0928778350353241,-0.051031261682510376
1717513032860163800,1.403163818359375,0.00000286102294921875,0.09304878860712051,-0.055857568979263306
1717513032870170400,1.41317041015625,0.00000286102294921875,0.09321717917919159,-0.051186371594667435
1717513032880177000,1.423177001953125,0.00000286102294921875,0.09809108078479767,-0.04669615626335144
1717513032890183400,1.433183349609375,0.00000286102294921875,0.0933634415268898,-0.056200116872787476
1717513032900190000,1.44318994140625,0.00000286102294921875,0.08892111480236053,-0.05623173713684082
1717513032910196500,1.453196533203125,-0.0047054290771484375,0.0891583114862442,-0.05155429244041443
1717513032920203000,1.463203125,0.0000820159912109375,0.0894945040345192,-0.0517665296792984
1717513032930209500,1.47320947265625,-0.004628181457519531,0.08972183614969254,-0.04706011712551117
1717513032940216300,1.48321630859375,-0.004550933837890625,0.08994551748037338,-0.04724404215812683
1717513032950222800,1.493222900390625,0.0049419403076171875,0.094977468252182,-0.052030280232429504
1717513032960229400,1.5032294921875,0.0001506805419921875,0.09040495753288269,-0.0520281121134758
1717513032970236000,1.51323583984375,0.000148773193359375,0.10003446042537689,-0.05212922766804695
1717513032980242400,1.523242431640625,0.0001468658447265625,0.09548108279705048,-0.05693729221820831
1717513032990249000,1.5332490234375,0.00014400482177734375,0.09100344032049179,-0.04743613675236702
1717513033000255500,1.54325537109375,0.00014209747314453125,0.09120576828718185,-0.047613777220249176
1717513033010262300,1.55326220703125,0.000141143798828125,0.09611333161592484,-0.052393801510334015
1717513033020268800,1.563268798828125,0.004848480224609375,0.09633375704288483,-0.04778021201491356
1717513033030275300,1.573275390625,0.009477615356445312,0.0964474231004715,-0.0526607483625412
1717513033040281900,1.58328173828125,-0.004805564880371094,0.0965590700507164,-0.05285458639264107
1717513033050288400,1.593288330078125,-0.0047245025634765625,0.09666884690523148,-0.04823332652449608
1717513033060295000,1.603294921875,0.004772186279296875,0.09677677601575851,-0.05310627818107605
1717513033070301400,1.613301513671875,-0.004723548889160156,0.09217432886362076,-0.05789801478385925
1717513033080308000,1.623307861328125,0.000064849853515625,0.09246042370796204,-0.053089432418346405
1717513033090314800,1.633314697265625,0.004773139953613281,0.09263850003480911,-0.0578814372420311
1717513033100321300,1.6433212890625,0.009403228759765625,0.09281378239393234,-0.053176406770944595
1717513033110327800,1.653327880859375,-0.0001697540283203125,0.08838067203760147,-0.04854978621006012
1717513033120334300,1.663334228515625,0.004542350769042969,0.09814723581075668,-0.04870886728167534
1717513033130340900,1.6733408203125,-0.009657859802246094,0.09352216124534607,-0.044156718999147415
1717513033140347400,1.683347412109375,0.004630088806152344,0.09849442541599274,-0.04909760504961014
1717513033150354000,1.69335400390625,-0.0001544952392578125,0.09857198596000671,-0.04924754798412323
1717513033160360700,1.703360595703125,-0.0001506805419921875,0.10346011072397232,-0.05410359054803848
1717513033170367200,1.7133671875,-0.0001468658447265625,0.08932911604642868,-0.05877543240785599
1717513033180373800,1.723373779296875,-0.004852294921875,0.09426801651716232,-0.04924362152814865
1717513033190380300,1.73338037109375,-0.00006198883056640625,0.09912459552288055,-0.054099708795547485
1717513033200386800,1.74338671875,-0.00006008148193359375,0.08977461606264114,-0.05406301096081734
1717513033210393300,1.753393310546875,0.004651069641113281,0.09941450506448746,-0.04471298307180405
1717513033220399900,1.76339990234375,0.009284019470214844,0.09476830810308456,-0.049644581973552704
1717513033230406700,1.77340673828125,0.004422187805175781,0.09490799903869629,-0.04978541284799576
1717513033240413200,1.7834130859375,-0.00035858154296875,0.09033678472042084,-0.05463249981403351
1717513033250419700,1.793419677734375,-0.0003509521484375,0.0952589362859726,-0.05469019338488579
1717513033260426200,1.80342626953125,0.009074211120605469,0.09078513085842133,-0.054746925830841064
1717513033270432800,1.813432861328125,-0.0052013397216796875,0.08638609200716019,-0.05480270832777023
1717513033280439300,1.823439208984375,-0.005112648010253906,0.09137410670518875,-0.054857563227415085
1717513033290445800,1.83344580078125,-0.0050258636474609375,0.09617570787668228,-0.050099633634090424
1717513033300452400,1.843452392578125,-0.004940032958984375,0.0962919369339943,-0.05023285001516342
1717513033310459100,1.853459228515625,-0.0001468658447265625,0.09650947898626328,-0.0549691766500473
1717513033320465700,1.863465576171875,-0.004853248596191406,0.09487377852201462,-0.05416363477706909
1717513033330472200,1.87347216796875,0.0046443939208984375,0.08855658769607544,-0.04856021702289581
1717513033340478700,1.883478759765625,-0.000141143798828125,0.09176153689622879,-0.05257119983434677
1717513033350485200,1.8934853515625,0.00457000732421875,0.09491264820098877,-0.05170397087931633
1717513033360491800,1.90349169921875,-0.0049228668212890625,0.09811440855264664,-0.04143453389406204
1717513033370498300,1.913498291015625,0.004576683044433594,0.08713679760694504,-0.050171107053756714
1717513033380505000,1.923505126953125,-0.0002079010009765625,0.08575916290283203,-0.04463671147823334
1717513033390511600,1.93351171875,-0.004913330078125,0.08911292254924774,-0.04861215874552727
1717513033400518100,1.94351806640625,-0.00012302398681640625,0.08289018273353577,-0.04310452565550804
1717513033410524700,1.953524658203125,-0.00012111663818359375,0.08618810772895813,-0.037688907235860825
1717513033420531200,1.96353125,-0.00011920928955078125,0.08943106234073639,-0.04178118705749512
1717513033430537700,1.973537841796875,0.0045909881591796875,0.08320259302854538,-0.04580538719892502
1717513033440544300,1.983544189453125,0.009222984313964844,0.07718122005462646,-0.045054301619529724
1717513033450550800,1.99355078125,-0.0050563812255859375,0.0758654773235321,-0.04431591182947159
1717513033460557600,2.0035576171875,0.004445075988769531,0.0793834775686264,-0.043589942157268524
1717513033470564000,2.013564208984375,-0.0003376007080078125,0.07803092896938324,-0.03806427866220474
1717513033480570600,2.023570556640625,-0.005040168762207031,0.07199226319789886,-0.046859778463840485
1717513033490577200,2.0335771484375,-0.000247955322265625,0.07547135651111603,-0.03677754104137421
1717513033500583700,2.043583740234375,-0.000244140625,0.06957844644784927,-0.0360739640891552
1717513033510590200,2.053590087890625,-0.000240325927734375,0.07320085167884827,-0.030673431232571602
1717513033520596700,2.0635966796875,-0.00023651123046875,0.06724227964878082,-0.039488326758146286
1717513033530603500,2.073603515625,0.004475593566894531,0.07080013304948807,-0.04344819858670235
1717513033540610000,2.083610107421875,0.004401206970214844,0.06969320774078369,-0.037924520671367645
1717513033550616600,2.093616455078125,-0.009798049926757812,0.059187375009059906,-0.03730471804738045
1717513033560623000,2.103623046875,0.004490852355957031,0.07239942252635956,-0.03208987042307854
1717513033570629600,2.113629638671875,0.004416465759277344,0.0665566474199295,-0.03146365284919739
1717513033580636200,2.12363623046875,0.0043430328369140625,0.07022815197706223,-0.03566005453467369
1717513033590642700,2.133642578125,-0.00043773651123046875,0.06431765854358673,-0.03036932274699211
1717513033600649200,2.143649169921875,-0.005139350891113281,0.06321385502815247,-0.0344807468354702
1717513033610656000,2.153656005859375,-0.005053520202636719,0.052710819989442825,-0.038626980036497116
1717513033620662500,2.16366259765625,-0.004969596862792969,0.05661139264702797,-0.037995632737874985
1717513033630669000,2.1736689453125,-0.004886627197265625,0.06034320592880249,-0.027957769110798836
1717513033640675600,2.183675537109375,0.004611968994140625,0.05459517613053322,-0.032212767750024796
1717513033650682000,2.19368212890625,-0.004881858825683594,0.05846279487013817,-0.027083970606327057
1717513033660688600,2.203688720703125,-0.000091552734375,0.06226551532745361,-0.0313543938100338
1717513033670695200,2.213695068359375,-0.00479888916015625,0.06119249016046524,-0.030845284461975098
1717513033680702000,2.223701904296875,0.0046977996826171875,0.06024008244276047,-0.025636304169893265
1717513033690708500,2.23370849609375,-0.00008869171142578125,0.05919975787401199,-0.02993159182369709
1717513033700715000,2.243715087890625,0.0046215057373046875,0.0488622784614563,-0.03415554016828537
1717513033710721500,2.253721435546875,0.009253501892089844,0.04811372607946396,-0.02418356016278267
1717513033720728000,2.26372802734375,0.009099006652832031,0.04256531596183777,-0.033211931586265564
1717513033730734600,2.273734619140625,0.004239082336425781,0.04652588069438934,-0.023256175220012665
1717513033740741000,2.2837412109375,0.004168510437011719,0.045814406126737595,-0.022884292528033257
1717513033750748000,2.293747802734375,-0.00531768798828125,0.05453147739171982,-0.022518321871757507
1717513033760754400,2.30375439453125,-0.0005207061767578125,0.03955964371562004,-0.022055406123399734
1717513033770761000,2.313760986328125,-0.0005121231079101562,0.043671075254678726,-0.02170366421341896
1717513033780767500,2.323767578125,-0.0005035400390625,0.04771332070231438,-0.021357949823141098
1717513033790774000,2.33377392578125,0.0042133331298828125,0.042270299047231674,-0.025726724416017532
1717513033800780500,2.343780517578125,-0.0005655288696289062,0.0416259840130806,-0.025313600897789
1717513033810787000,2.353787109375,-0.0005559921264648438,0.05030546709895134,-0.024907944723963737
1717513033820793600,2.363793701171875,-0.005255699157714844,0.04000513628125191,-0.01980043575167656
1717513033830800400,2.37380029296875,0.004248619079589844,0.03929279372096062,-0.024195773527026176
1717513033840807000,2.383806884765625,0.004177093505859375,0.03869500756263733,-0.023911841213703156
1717513033850813400,2.3938134765625,-0.0006008148193359375,0.042815085500478745,-0.02352922409772873
1717513033860820000,2.403820068359375,-0.0005903244018554688,0.03744859620928764,-0.023152772337198257
1717513033870826500,2.413826416015625,0.008836746215820312,0.03687944635748863,-0.01797046884894371
1717513033880833000,2.4238330078125,-0.005435943603515625,0.04102766141295433,-0.02710329368710518
1717513033890839600,2.433839599609375,-0.000637054443359375,0.030980046838521957,-0.01724979653954506
1717513033900846300,2.443846435546875,0.00408172607421875,0.030413392931222916,-0.016976118087768555
1717513033910852900,2.453852783203125,-0.0006952285766601562,0.03456383943557739,-0.011895399540662766
1717513033920859400,2.463859375,-0.010100364685058594,0.03393575921654701,-0.01641945168375969
1717513033930866000,2.473865966796875,0.004193305969238281,0.03342065587639809,-0.025576351210474968
1717513033940872400,2.48387255859375,0.004123687744140625,0.037518732249736786,-0.02516309916973114
1717513033950879000,2.49387890625,-0.0006532669067382812,0.04165104776620865,-0.01994454860687256
1717513033960885500,2.503885498046875,0.00406646728515625,0.031587980687618256,-0.010207336395978928
1717513033970892000,2.51389208984375,0.003998756408691406,0.03581773489713669,-0.014757923781871796
1717513033980898800,2.52389892578125,-0.0007762908935546875,0.030559107661247253,-0.014523819088935852
1717513033990905300,2.5339052734375,0.003945350646972656,0.03470136970281601,-0.01900198496878147
1717513034000912000,2.543911865234375,-0.0008287429809570312,0.03416857868432999,-0.013988111168146133
1717513034010918400,2.55391845703125,-0.0008153915405273438,0.028832122683525085,-0.02318340539932251
1717513034020925000,2.563925048828125,-0.0008020401000976562,0.03310442715883255,-0.018099473789334297
1717513034030931500,2.573931396484375,-0.0007886886596679688,0.027784451842308044,-0.008391497656702995
1717513034040938000,2.58393798828125,0.003932952880859375,0.027364425361156464,-0.01297094114124775
1717513034050944800,2.59394482421875,0.0038671493530273438,0.026950865983963013,-0.012765301391482353
1717513034060951300,2.603951416015625,-0.005614280700683594,0.02183511108160019,-0.021980123594403267
1717513034070957800,2.613957763671875,-0.005520820617675781,0.026221327483654022,-0.012206820771098137
1717513034080964400,2.62396435546875,0.003987312316894531,0.0258253812789917,-0.012116711586713791
1717513034090971000,2.633970947265625,-0.005496025085449219,0.020623721182346344,-0.011924684047698975
1717513034100977400,2.643977294921875,0.0040130615234375,0.029737338423728943,-0.016444304957985878
1717513034110984000,2.65398388671875,0.0039463043212890625,0.03869861364364624,-0.016076594591140747
1717513034120990700,2.66399072265625,-0.0008268356323242188,0.03328105807304382,-0.011006290093064308
1717513034130997200,2.673997314453125,-0.0055217742919921875,0.027953624725341797,-0.020248698070645332
1717513034141003800,2.684003662109375,0.003987312316894531,0.027526244521141052,-0.01521194726228714
1717513034151010300,2.69401025390625,-0.0007877349853515625,0.022397063672542572,-0.010259075090289116
1717513034161016800,2.704016845703125,0.003933906555175781,0.026667006313800812,-0.019514499232172966
1717513034171023400,2.7140234375,0.00386810302734375,0.02615690976381302,-0.019198425114154816
1717513034181030000,2.72402978515625,0.003803253173828125,0.025758326053619385,-0.0094703808426857
1717513034191036400,2.734036376953125,-0.0009679794311523438,0.02055453509092331,-0.014029441401362419
1717513034201043200,2.744043212890625,0.0037565231323242188,0.024957485496997833,-0.009096050634980202
1717513034211049700,2.7540498046875,-0.0057220458984375,0.024474740028381348,-0.01366281695663929
1717513034221056300,2.76405615234375,-0.0009174346923828125,0.01929154247045517,-0.01344401016831398
1717513034231062800,2.774062744140625,-0.0009021759033203125,0.014297880232334137,-0.013228768482804298
1717513034241069300,2.7840693359375,-0.005596160888671875,0.018804557621479034,-0.013017022982239723
1717513034251075800,2.794075927734375,-0.0007944107055664062,0.01852748543024063,-0.017517298460006714
1717513034261082400,2.804082275390625,-0.0007801055908203125,0.022860348224639893,-0.012525269761681557
1717513034271089200,2.814089111328125,-0.0054759979248046875,0.02251565456390381,-0.007513059303164482
1717513034281095700,2.824095703125,0.004033088684082031,0.017364852130413055,-0.007396141067147255
1717513034291102200,2.834102294921875,-0.005451202392578125,0.021820396184921265,-0.011989671736955643
1717513034301108700,2.844108642578125,-0.000652313232421875,0.01678452640771866,-0.007192615419626236
1717513034311115300,2.854115234375,-0.0006418228149414062,0.0165412575006485,-0.006977489218115807
1717513034321121800,2.864121826171875,-0.0006322860717773438,0.011593520641326904,-0.011680983006954193
1717513034331128300,2.87412841796875,-0.005329132080078125,0.020750857889652252,-0.0020769350230693817
1717513034341134800,2.884134765625,-0.0005321502685546875,0.02975568175315857,-0.0115705206990242
1717513034351141600,2.8941416015625,0.004184722900390625,0.02458804100751877,-0.011488588526844978
1717513034361148200,2.904148193359375,-0.00530242919921875,0.014797806739807129,-0.011305486783385277
1717513034371154700,2.91415478515625,0.004202842712402344,0.014588385820388794,-0.011021187528967857
1717513034381161200,2.9241611328125,-0.005284309387207031,0.014382913708686829,-0.01084386557340622
1717513034391167700,2.934167724609375,-0.005196571350097656,0.01418045163154602,-0.010670989751815796
1717513034401174300,2.94417431640625,0.004306793212890625,0.013982079923152924,-0.005790466442704201
1717513034411180800,2.954180908203125,-0.00047397613525390625,0.004369668662548065,-0.005700482055544853
1717513034421187600,2.9641875,0.008951187133789062,0.013751938939094543,-0.010320328176021576
1717513034431194000,2.974194091796875,-0.0006151199340820312,0.008852116763591766,-0.010154291987419128
1717513034441200600,2.98420068359375,-0.0006046295166015625,0.013451151549816132,-0.009990721940994263
1717513034451207200,2.994207275390625,-0.0005941390991210938,0.013264916837215424,-0.009726308286190033
1717513034461213700,3.004213623046875,-0.0005846023559570312,0.01308169960975647,-0.004860658198595047
1717513034471220200,3.01422021484375,-0.009991645812988281,0.012901395559310913,-0.00949300266802311
1717513034481226800,3.024226806640625,-0.000408172607421875,0.01743248850107193,-0.01875644363462925
1717513034491233300,3.0342333984375,-0.0051097869873046875,0.00305340439081192,0.0003863666206598282
1717513034501240000,3.044239990234375,-0.00031566619873046875,0.017165228724479675,-0.009041175246238708
1717513034511246600,3.05424658203125,0.004399299621582031,0.012103833258152008,-0.008790872991085052
1717513034521253000,3.064253173828125,0.00432586669921875,0.016646839678287506,-0.0039391592144966125
1717513034531259600,3.074259765625,-0.00045490264892578125,0.006987869739532471,-0.013293864205479622
1717513034541266200,3.08426611328125,-0.00044727325439453125,0.016323760151863098,-0.003658043220639229
1717513034551272700,3.094272705078125,-0.0051479339599609375,0.016086317598819733,-0.013016995042562485
1717513034561279200,3.104279296875,-0.00035381317138671875,0.011143647134304047,-0.0033853743225336075
1717513034571286000,3.1142861328125,-0.00034809112548828125,0.01569993793964386,-0.012748489156365395
1717513034581292500,3.12429248046875,0.0043659210205078125,0.015470728278160095,-0.012539077550172806
1717513034591299000,3.134299072265625,0.009001731872558594,0.015244975686073303,-0.002914935350418091
1717513034601305600,3.1443056640625,-0.005274772644042969,0.010313652455806732,-0.002971544861793518
1717513034611312000,3.15431201171875,0.004229545593261719,0.014880619943141937,-0.0077366214245557785
1717513034621318700,3.164318603515625,0.004158973693847656,0.01937098801136017,-0.012318059802055359
1717513034631325200,3.1743251953125,-0.0006189346313476562,0.009659886360168457,-0.012114482000470161
1717513034641332000,3.18433203125,-0.0006084442138671875,0.01423557847738266,-0.00720563717186451
1717513034651338500,3.19433837890625,-0.0005979537963867188,0.004608340561389923,-0.007087141275405884
1717513034661345000,3.204344970703125,-0.0005884170532226562,0.009266451001167297,-0.0021586958318948746
1717513034671351600,3.2143515625,-0.0005788803100585938,-0.0002800747752189636,-0.0021251067519187927
1717513034681358000,3.224358154296875,-0.005278587341308594,0.009166315197944641,-0.0021943971514701843
1717513034691364600,3.234364501953125,0.0042266845703125,0.0043282583355903625,-0.006765475496649742
1717513034701371100,3.24437109375,-0.0005521774291992188,0.008987769484519958,-0.0018413364887237549
1717513034711377700,3.254377685546875,-0.0005426406860351562,0.008860133588314056,-0.006519712507724762
1717513034721384400,3.264384521484375,-0.0005331039428710938,0.018047362565994263,-0.00641242042183876
1717513034731391000,3.274390869140625,-0.0005245208740234375,0.003640882670879364,0.0031102709472179413
1717513034741397500,3.2843974609375,-0.0005159378051757812,0.01772526651620865,-0.00636015459895134
1717513034751404000,3.294404052734375,-0.000507354736328125,0.012740053236484528,-0.006254658102989197
1717513034761410600,3.30441064453125,-0.0004987716674804688,0.007836490869522095,-0.00615277886390686
1717513034771417000,3.3144169921875,0.004218101501464844,0.012431100010871887,-0.006052624434232712
1717513034781423600,3.324423583984375,0.004147529602050781,0.01694871485233307,-0.005953237414360046
1717513034791430400,3.334430419921875,-0.0053386688232421875,0.007264524698257446,-0.010564114898443222
1717513034801437000,3.34443701171875,-0.0005407333374023438,0.011866822838783264,-0.005680955946445465
1717513034811443500,3.354443359375,0.004177093505859375,0.006974540650844574,-0.0008791759610176086
1717513034821450000,3.364449951171875,0.0041065216064453125,0.006974987685680389,-0.005574613809585571
1717513034831456500,3.37445654296875,0.004038810729980469,0.011477179825305939,-0.0007736533880233765
1717513034841463000,3.384463134765625,-0.0007371902465820312,0.006589770317077637,-0.0054698847234249115
1717513034851469600,3.394469482421875,-0.00543212890625,0.0016796067357063293,-0.0006715618073940277
1717513034861476000,3.40447607421875,-0.00063323974609375,0.0016625672578811646,-0.00997573509812355
1717513034871483000,3.41448291015625,-0.0006227493286132812,0.011062473058700562,-0.005102343857288361
1717513034881489400,3.424489501953125,0.004096031188964844,0.006179772317409515,-0.0003093108534812927
1717513034891496000,3.434495849609375,-0.0006818771362304688,0.006189502775669098,-0.005014397203922272
1717513034901502500,3.44450244140625,-0.0006704330444335938,0.006095364689826965,-0.004932604730129242
1717513034911509000,3.454509033203125,0.008757591247558594,0.006002366542816162,-0.0001437366008758545
1717513034921515500,3.464515625,-0.0008058547973632812,0.010619118809700012,-0.0048520565032958984
1717513034931522000,3.47452197265625,0.0039157867431640625,0.005741335451602936,-0.004773493856191635
1717513034941528800,3.48452880859375,-0.0008573532104492188,0.0008412227034568787,-0.004696443676948547
1717513034951535400,3.494535400390625,-0.0008420944213867188,0.005439639091491699,-0.004620887339115143
1717513034961542000,3.5045419921875,0.008588790893554688,0.010064400732517242,-0.004443526268005371
1717513034971548400,3.51454833984375,0.0037374496459960938,0.009903237223625183,0.00033601000905036926
1717513034981555000,3.524554931640625,-0.0010328292846679688,0.009641282260417938,-0.009090114384889603
1717513034991561500,3.5345615234375,-0.0010156631469726562,0.004778191447257996,-0.004233550280332565
1717513035001568000,3.544568115234375,0.0037097930908203125,0.004704616963863373,-0.004166733473539352
1717513035011574800,3.55457470703125,0.0036478042602539062,-0.00007677823305130005,0.0006064064800739288
1717513035021581300,3.564581298828125,-0.0011205673217773438,0.0045357197523117065,0.0054040029644966125
1717513035031587800,3.574587890625,-0.0011014938354492188,0.004466347396373749,0.0006019100546836853
1717513035041594400,3.584594482421875,0.0036258697509765625,0.0043978020548820496,-0.004121333360671997
1717513035051601000,3.594600830078125,0.008275032043457031,0.008935786783695221,-0.003954235464334488
1717513035061607400,3.604607421875,0.0034284591674804688,0.00879291445016861,-0.0037901923060417175
1717513035071614000,3.614614013671875,-0.0013370513916015625,0.008652575314044952,0.0009761489927768707
1717513035081620500,3.624620361328125,0.0033941268920898438,0.008514784276485443,-0.00375448539853096
1717513035091627300,3.634627197265625,-0.0013713836669921875,0.008379541337490082,-0.003698039799928665
1717513035101633800,3.6446337890625,-0.0013484954833984375,0.0035382211208343506,0.0011689476668834686
1717513035111640300,3.654640380859375,-0.010743141174316406,0.008195072412490845,0.0012457966804504395
1717513035121646800,3.664646728515625,-0.0011463165283203125,-0.0014544352889060974,0.0012176409363746643
1717513035131653400,3.6746533203125,0.003582000732421875,0.0031829848885536194,0.0011894702911376953
1717513035141660000,3.684659912109375,0.0035219192504882812,0.0031381621956825256,0.001058001071214676
1717513035151666400,3.69466650390625,-0.0059528350830078125,0.012408420443534851,-0.0036771148443222046
1717513035161673200,3.704673095703125,-0.0011453628540039062,0.002793513238430023,-0.008230552077293396
1717513035171679700,3.7146796875,0.0035829544067382812,0.007362261414527893,0.0013148710131645203
1717513035181686300,3.724686279296875,0.0035228729248046875,-0.002167448401451111,0.0012825019657611847
1717513035191692800,3.73469287109375,-0.00124359130859375,0.007193051278591156,-0.008271310478448868
1717513035201699300,3.74469921875,-0.005931854248046875,0.002376049757003784,0.0012722089886665344
1717513035211705900,3.754705810546875,-0.0011243820190429688,0.0070572346448898315,-0.00807497650384903
1717513035221712400,3.76471240234375,-0.0011053085327148438,0.0116611048579216,-0.003244362771511078
1717513035231719000,3.774718994140625,-0.001087188720703125,0.0020624473690986633,0.0015057437121868134
1717513035241725700,3.7847255859375,0.00363922119140625,0.002042427659034729,-0.0032415054738521576
1717513035251732200,3.794732177734375,-0.0011301040649414062,0.006731688976287842,0.0016093850135803223
1717513035261738800,3.80473876953125,-0.001110076904296875,0.001823417842388153,-0.003140535205602646
1717513035271745300,3.814745361328125,-0.0010919570922851562,0.001809529960155487,-0.003103155642747879
1717513035281751800,3.824751708984375,0.008344650268554688,0.006401903927326202,-0.0029635876417160034
1717513035291758300,3.83475830078125,-0.00592041015625,0.006313107907772064,0.0018818005919456482
1717513035301764900,3.844764892578125,-0.0011119842529296875,0.0061232224106788635,0.001937374472618103
1717513035311771600,3.854771728515625,0.0036153793334960938,0.01074906438589096,0.0018882937729358673
1717513035321778200,3.864778076171875,-0.0011529922485351562,0.010589897632598877,0.0018395669758319855
1717513035331784700,3.87478466796875,-0.0011339187622070312,0.0010172277688980103,-0.002813134342432022
1717513035341791200,3.884791259765625,-0.0011138916015625,0.000917971134185791,0.0020264722406864166
1717513035351797800,3.8947978515625,-0.001094818115234375,0.010238602757453918,0.002077341079711914
1717513035361804300,3.90480419921875,0.0036325454711914062,0.005278781056404114,0.002126876264810562
1717513035371810800,3.914810791015625,-0.0011358261108398438,0.005110941827297211,-0.0025335103273391724
1717513035381817300,3.9248173828125,-0.010533332824707031,0.0049466341733932495,0.002300456166267395
1717513035391824100,3.93482421875,-0.005648612976074219,0.00007721781730651855,-0.002467174082994461
1717513035401830700,3.94483056640625,0.0038633346557617188,0.004706941545009613,0.0023645199835300446
1717513035411837200,3.954837158203125,-0.0009088516235351562,0.004551708698272705,-0.002302173525094986
1717513035421843700,3.96484375,0.0038166046142578125,-0.0004119575023651123,0.002422146499156952
1717513035431850200,3.974850341796875,-0.0056629180908203125,0.004228085279464722,0.002357378602027893
1717513035441856800,3.984856689453125,-0.0008602142333984375,-0.005230426788330078,-0.007020026445388794
1717513035451863300,3.99486328125,-0.0008449554443359375,-0.0005081892013549805,-0.002117197960615158
1717513035461870000,4.0048701171875,0.003879547119140625,-0.0006751269102096558,-0.0020045824348926544
1717513035471876600,4.014876708984375,-0.005600929260253906,0.003973647952079773,0.0028137899935245514
1717513035481883100,4.024883056640625,0.003911018371582031,0.003734216094017029,-0.0018663778901100159
1717513035491889700,4.0348896484375,0.0038480758666992188,0.0035000070929527283,-0.001864314079284668
1717513035501896200,4.044896240234375,-0.0009241104125976562,-0.0013346821069717407,0.0029474012553691864
1717513035511902700,4.05490283203125,-0.0009069442749023438,-0.0014820173382759094,-0.0018427595496177673
1717513035521909200,4.0649091796875,-0.0008907318115234375,-0.006230287253856659,-0.0017414651811122894
1717513035531916000,4.074916015625,0.013251304626464844,0.003228031098842621,0.0030654333531856537
1717513035541922600,4.084922607421875,0.0036144256591796875,-0.001595713198184967,-0.0016273446381092072
1717513035551929000,4.09492919921875,0.0035552978515625,0.0030803829431533813,0.0031749270856380463
1717513035561935600,4.104935546875,-0.01062774658203125,-0.0018403679132461548,-0.0015224628150463104
1717513035571942100,4.114942138671875,0.008385658264160156,-0.001968465745449066,0.007982786744832993
1717513035581948700,4.12494873046875,-0.0011701583862304688,-0.001988634467124939,-0.006213825196027756
1717513035591955200,4.134955078125,0.003559112548828125,-0.0020062029361724854,-0.0013409443199634552
1717513035601961700,4.144961669921875,-0.0012073516845703125,0.002584196627140045,0.0034491978585720062
1717513035611968500,4.154968505859375,-0.001186370849609375,0.007203422486782074,-0.0012602582573890686
1717513035621975000,4.16497509765625,-0.0011653900146484375,0.002330973744392395,0.003524426370859146
1717513035631981600,4.174981689453125,-0.0011444091796875,0.0021480321884155273,-0.0011883638799190521
1717513035641988000,4.184988037109375,-0.0011243820190429688,0.0020736604928970337,-0.001116584986448288
1717513035651994600,4.19499462890625,-0.005812644958496094,0.006608538329601288,-0.0010475516319274902
1717513035662001200,4.205001220703125,-0.005713462829589844,-0.0030552223324775696,-0.0009812228381633759
1717513035672007700,4.215007568359375,-0.0009088516235351562,-0.007743276655673981,0.0037910565733909607
1717513035682014500,4.225014404296875,0.0038166046142578125,-0.003036089241504669,0.0037746839225292206
1717513035692021000,4.23502099609375,-0.005661964416503906,0.0015954747796058655,0.0038602910935878754
1717513035702027500,4.245027587890625,0.0038499832153320312,0.0015469864010810852,0.0038385912775993347
1717513035712034000,4.255033935546875,0.008494377136230469,-0.003206416964530945,-0.0008929334580898285
1717513035722040600,4.26504052734375,-0.0010633468627929688,-0.0032723844051361084,-0.000838596373796463
1717513035732047000,4.275047119140625,0.0036630630493164062,0.0014774948358535767,-0.0007867589592933655
1717513035742053600,4.2850537109375,-0.00110626220703125,-0.007974334061145782,-0.0007363446056842804
1717513035752060200,4.29506005859375,-0.005794525146484375,0.0014649033546447754,-0.0005861297249794006
1717513035762067000,4.30506689453125,-0.000988006591796875,-0.003376200795173645,-0.000543300062417984
1717513035772073500,4.315073486328125,0.0037393569946289062,-0.00813388079404831,-0.0003995448350906372
1717513035782080000,4.325080078125,0.0036783218383789062,0.0013162046670913696,-0.0003631077706813812
1717513035792086500,4.33508642578125,-0.0010900497436523438,0.0011942610144615173,-0.00022568926215171814
1717513035802093000,4.345093017578125,0.0036373138427734375,0.0010769814252853394,0.009221665561199188
1717513035812099600,4.355099609375,0.0035762786865234375,0.0010675489902496338,-0.00032454729080200195
1717513035822106000,4.365106201171875,-0.001190185546875,-0.003751009702682495,0.0045156702399253845
1717513035832113000,4.37511279296875,-0.0011692047119140625,-0.003778107464313507,0.004564870148897171
1717513035842119400,4.385119384765625,-0.0011491775512695312,0.0009063556790351868,0.009216800332069397
1717513035852126000,4.3951259765625,-0.010546684265136719,-0.013319559395313263,0.009079769253730774
1717513035862132500,4.405132568359375,-0.0056610107421875,-0.0037629306316375732,-0.0004739724099636078
1717513035872139000,4.415138916015625,0.0085601806640625,-0.0037803351879119873,-0.00045309215784072876
1717513035882145500,4.4251455078125,-0.0009984970092773438,0.0009135603904724121,-0.00043435394763946533
1717513035892152000,4.435152099609375,-0.0009813308715820312,0.0008230134844779968,-0.00031444430351257324
1717513035902158600,4.44515869140625,-0.005671501159667969,0.0006334856152534485,0.004408061504364014
1717513035912165400,4.455165283203125,0.008549690246582031,0.0005527585744857788,0.004444748163223267
1717513035922172000,4.465171875,-0.0010089874267578125,-0.008941464126110077,-0.000332806259393692
1717513035932178400,4.475178466796875,-0.005700111389160156,-0.004149317741394043,0.004384707659482956
1717513035942185000,4.48518505859375,-0.0008955001831054688,-0.0041436925530433655,0.009124062955379486
1717513035952191500,4.49519140625,0.0038290023803710938,-0.008844040334224701,-0.00034205615520477295
1717513035962198000,4.505197998046875,0.0037670135498046875,0.0005587711930274963,-0.0002349354326725006
1717513035972204500,4.51520458984375,0.0037050247192382812,-0.004215352237224579,0.0044740065932273865
1717513035982211300,4.52521142578125,-0.001064300537109375,0.000509604811668396,-0.0003144480288028717
1717513035992217900,4.5352177734375,-0.00104522705078125,0.00044952332973480225,-0.00031620264053344727
1717513036002224400,4.545224365234375,0.003681182861328125,0.00039277970790863037,-0.00031961873173713684
1717513036012231000,4.55523095703125,-0.001087188720703125,0.00023565441370010376,0.009194780141115189
1717513036022237400,4.565237548828125,0.00363922119140625,-0.0045218318700790405,0.009028512984514236
1717513036032244000,4.575243896484375,-0.001129150390625,-0.004489094018936157,-0.005159091204404831
1717513036042250500,4.58525048828125,-0.001110076904296875,0.00025403499603271484,-0.005089260637760162
1717513036052257300,4.59525732421875,0.0036182403564453125,0.00010856986045837402,-0.00031350553035736084
1717513036062263800,4.605263916015625,-0.0011501312255859375,-0.00003215670585632324,0.004381205886602402
1717513036072270300,4.615270263671875,-0.0011301040649414062,-0.004876412451267242,-0.00041987374424934387
1717513036082276900,4.62527685546875,-0.001110076904296875,-0.009637966752052307,0.0042738839983940125
1717513036092283400,4.635283447265625,-0.0010900497436523438,-0.004900604486465454,-0.0004257671535015106
1717513036102290000,4.6452900390625,-0.005778312683105469,-0.00965697318315506,0.004368923604488373
1717513036112296400,4.65529638671875,-0.000972747802734375,-0.004914447665214539,-0.0004378892481327057
1717513036122303000,4.665302978515625,0.003753662109375,-0.0049566850066185,-0.00035275518894195557
1717513036132309800,4.675309814453125,-0.0010166168212890625,-0.00970468670129776,-0.00037440285086631775
1717513036142316300,4.68531640625,0.008419036865234375,-0.00034847110509872437,-0.0003966987133026123
1717513036152322800,4.69532275390625,-0.0011358261108398438,-0.0052713677287101746,0.004392281174659729
1717513036162329300,4.705329345703125,-0.0011138916015625,0.004016667604446411,0.004392977803945541
1717513036172335900,4.7153359375,0.008322715759277344,-0.005578868091106415,-0.0004201531410217285
1717513036182342400,4.72534228515625,-0.0012302398681640625,-0.0009891092777252197,0.004366546869277954
1717513036192349000,4.735348876953125,0.008208274841308594,-0.0010782480239868164,-0.00034455955028533936
1717513036202355700,4.745355712890625,0.00336456298828125,-0.005974762141704559,-0.0003726258873939514
1717513036212362200,4.7553623046875,-0.0013980865478515625,-0.0013693571090698242,-0.0004009939730167389
1717513036222368800,4.76536865234375,-0.001373291015625,-0.0062546879053115845,0.004278998821973801
1717513036232375300,4.775375244140625,-0.006056785583496094,-0.006350398063659668,-0.0004340037703514099
1717513036242381800,4.7853818359375,0.0034627914428710938,-0.006444111466407776,-0.005067393183708191
1717513036252388400,4.795388427734375,-0.0013017654418945312,-0.0018276646733283997,0.004502233117818832
1717513036262395000,4.805394775390625,-0.0012788772583007812,-0.0018934905529022217,-0.00021342933177947998
1717513036272401400,4.8154013671875,-0.0012540817260742188,-0.006873361766338348,0.004566702991724014
1717513036282408200,4.825408203125,0.0034770965576171875,-0.0022497624158859253,-0.0001500360667705536
1717513036292414700,4.835414794921875,-0.0059947967529296875,-0.007224097847938538,-0.00018391013145446777
1717513036302421200,4.845421142578125,0.0035238265991210938,-0.007303252816200256,0.00449245423078537
1717513036312428000,4.855427978515625,0.0034666061401367188,-0.0073814839124679565,-0.00022412464022636414
1717513036322434600,4.8654345703125,-0.0012969970703125,-0.01226988434791565,-0.0049642883241176605
1717513036332441000,4.875441162109375,-0.0059795379638671875,-0.007762894034385681,-0.00010498613119125366
1717513036342447900,4.88544775390625,-0.00116729736328125,-0.003228135406970978,0.00467224046587944
1717513036352454400,4.895454345703125,-0.0011444091796875,-0.00347716361284256,-0.00004626438021659851
1717513036362461000,4.9054609375,-0.00112152099609375,-0.013139232993125916,0.00012573599815368652
1717513036372467700,4.9154677734375,-0.0058078765869140625,-0.008514486253261566,0.00019159913063049316
1717513036382474200,4.92547412109375,0.0037097930908203125,-0.003966808319091797,0.004964962601661682
1717513036392480800,4.935480712890625,0.0036525726318359375,-0.01372438669204712,0.005052343010902405
1717513036402487600,4.945487548828125,0.0035963058471679688,-0.009193159639835358,0.00032749399542808533
1717513036412494000,4.955494140625,0.008249282836914062,-0.01886364072561264,0.00038889050483703613
1717513036422500600,4.96550048828125,-0.001300811767578125,-0.009538166224956512,0.0004503615200519562
1717513036432507400,4.97550732421875,-0.0012750625610351562,-0.009682036936283112,0.005219403654336929
1717513036442514000,4.985513916015625,-0.0012493133544921875,-0.005218170583248138,0.0004917643964290619
1717513036452519700,4.995519775390625,-0.005932807922363281,-0.0008287057280540466,0.0005515143275260925
1717513036462526500,5.0055263671875,-0.010538101196289062,-0.005929999053478241,0.0007124245166778564
1717513036472533000,5.015532958984375,-0.005649566650390625,-0.00623726099729538,0.0007684901356697083
1717513036482539500,5.02553955078125,-0.0008420944213867188,-0.015956595540046692,0.005532216280698776
1717513036492546300,5.03554638671875,-0.005532264709472656,-0.006679549813270569,0.005507946014404297
1717513036502552800,5.045552734375,0.003981590270996094,-0.01639191061258316,0.0007743537425994873
1717513036512559400,5.055559326171875,-0.005496978759765625,-0.0071076154708862305,0.005537979304790497
1717513036522566100,5.065566162109375,0.004016876220703125,-0.012103833258152008,0.0008050054311752319
1717513036532572700,5.07557275390625,0.003954887390136719,-0.0076000019907951355,-0.0038502104580402374
1717513036542579200,5.0855791015625,0.013310432434082031,-0.017296619713306427,0.0009904801845550537
1717513036552586000,5.0955859375,0.0036764144897460938,-0.00799725204706192,0.005750495940446854
1717513036562592500,5.105592529296875,0.003620147705078125,-0.012979075312614441,-0.003592483699321747
1717513036572599000,5.11559912109375,-0.0011425018310546875,-0.013272136449813843,0.0013471804559230804
1717513036582605800,5.125605712890625,0.0035905838012695312,-0.01816563308238983,0.010913107544183731
1717513036592612400,5.1356123046875,-0.0011720657348632812,-0.018269389867782593,0.006192672997713089
1717513036602619000,5.145618896484375,0.0035619735717773438,-0.0184742733836174,0.0014487765729427338
1717513036612625400,5.15562548828125,0.0035076141357421875,-0.013863883912563324,0.0014925450086593628
1717513036622632000,5.1656318359375,-0.005962371826171875,-0.014038927853107452,0.0016388557851314545
1717513036632638500,5.175638427734375,-0.001148223876953125,-0.004897125065326691,0.0017827227711677551
1717513036642645200,5.185645263671875,-0.00112152099609375,-0.01013675332069397,0.0066327862441539764
1717513036652651800,5.19565185546875,0.003612518310546875,-0.010477609932422638,0.0019836537539958954
1717513036662658300,5.205658203125,0.0035581588745117188,-0.010812781751155853,-0.0026912614703178406
1717513036672664800,5.215664794921875,0.008213996887207031,-0.011142373085021973,0.002232193946838379
1717513036682671400,5.22567138671875,-0.0013332366943359375,-0.006757460534572601,0.002366159111261368
1717513036692678000,5.235677978515625,0.008111000061035156,-0.016468152403831482,0.0023946166038513184
1717513036702684400,5.245684326171875,0.0032739639282226562,-0.011994481086730957,0.011943068355321884
1717513036712691200,5.255691162109375,-0.0014829635620117188,-0.012303978204727173,0.002497989684343338
1717513036722697700,5.26569775390625,0.0032567977905273438,-0.01731690764427185,0.007336117327213287
1717513036732704300,5.275704345703125,-0.001499176025390625,-0.01753769814968109,0.002676408737897873
1717513036742710800,5.285710693359375,-0.0014677047729492188,-0.01775480806827545,0.002906233072280884
1717513036752717300,5.29571728515625,-0.0014362335205078125,-0.013260126113891602,0.007736362516880035
1717513036762723800,5.305723876953125,-0.0014057159423828125,-0.008839927613735199,0.007675305008888245
1717513036772730400,5.31573046875,0.0033349990844726562,-0.01872289925813675,0.0031120069324970245
1717513036782737200,5.325737060546875,0.0032863616943359375,-0.014211654663085938,-0.0014773085713386536
1717513036792743700,5.33574365234375,0.003238677978515625,-0.014587901532649994,0.0034258514642715454
1717513036802750200,5.345750244140625,0.0031919479370117188,-0.01966649293899536,0.008144017308950424
1717513036812756700,5.3557568359375,0.0031452178955078125,-0.01513952761888504,0.003470826894044876
1717513036822763300,5.36576318359375,-0.0016078948974609375,-0.010791294276714325,0.008292719721794128
1717513036832769800,5.375769775390625,-0.0015716552734375,-0.020744606852531433,0.0036170445382595062
1717513036842776300,5.3857763671875,0.0031709671020507812,-0.025720149278640747,0.003727894276380539
1717513036852782800,5.395782958984375,-0.006291389465332031,-0.01648698002099991,0.003836892545223236
1717513036862789600,5.40578955078125,0.0032396316528320312,-0.021636754274368286,0.013464540243148804
1717513036872796200,5.415796142578125,0.0031948089599609375,-0.01728350669145584,-0.0007145330309867859
1717513036882802700,5.425802734375,-0.0015573501586914062,-0.017711415886878967,0.013697560876607895
1717513036892809200,5.435809326171875,-0.0015230178833007812,-0.01802891492843628,0.00893179327249527
1717513036902815700,5.445815673828125,0.0032205581665039062,-0.018444396555423737,0.004348717629909515
1717513036912822300,5.455822265625,0.0031757354736328125,-0.01874968409538269,0.009259223937988281
1717513036922828800,5.465828857421875,0.003131866455078125,-0.019153162837028503,0.00467069074511528
1717513036932835600,5.475835693359375,0.0030889511108398438,-0.024258524179458618,0.004763953387737274
1717513036942842000,5.485842041015625,-0.0016603469848632812,-0.024570196866989136,0.01437612995505333
1717513036952848600,5.4958486328125,-0.0016222000122070312,-0.02016807347536087,0.009702309966087341
1717513036962855200,5.505855224609375,-0.0015859603881835938,-0.025153234601020813,0.009918253868818283
1717513036972861700,5.51586181640625,0.0031595230102539062,-0.030158579349517822,0.005318719893693924
1717513036982868200,5.5258681640625,-0.0015916824340820312,-0.025663331151008606,0.005504444241523743
1717513036992874800,5.535874755859375,0.0031538009643554688,-0.025951586663722992,0.005687069147825241
1717513037002881300,5.54588134765625,-0.006306648254394531,-0.02152644842863083,0.0010547786951065063
1717513037012888000,5.55588818359375,-0.0014829635620117188,-0.026592247188091278,0.001311562955379486
1717513037022894600,5.56589453125,-0.0014476776123046875,-0.017447814345359802,0.006272654980421066
1717513037032901000,5.575901123046875,-0.0014123916625976562,-0.017976269125938416,0.011151060461997986
1717513037042907600,5.58590771484375,-0.006087303161621094,-0.032518431544303894,0.0065309591591358185
1717513037052914200,5.5959140625,-0.005974769592285156,-0.02808663249015808,0.011406347155570984
1717513037062920700,5.605920654296875,-0.0011548995971679688,-0.02843775600194931,0.011490579694509506
1717513037072927200,5.61592724609375,0.0035848617553710938,-0.02407442033290863,0.002259477972984314
1717513037082934000,5.62593408203125,-0.0011730194091796875,-0.03380633145570755,0.007308013737201691
1717513037092940500,5.6359404296875,0.003566741943359375,-0.029353536665439606,0.002751946449279785
1717513037102947000,5.645947021484375,0.008227348327636719,-0.03439214080572128,0.012397602200508118
1717513037112953600,5.65595361328125,0.0033931732177734375,-0.029929600656032562,0.0030481070280075073
1717513037122960100,5.665960205078125,0.008056640625,-0.025540947914123535,0.012690145522356033
1717513037132966700,5.675966552734375,0.007935523986816406,-0.03074640780687332,0.012752968817949295
1717513037142973200,5.68597314453125,-0.0016021728515625,-0.02634464204311371,0.00350082665681839
1717513037152980000,5.69597998046875,0.0031452178955078125,-0.03143342584371567,0.008528672158718109
1717513037162986500,5.705986572265625,0.00310516357421875,-0.02702021598815918,0.008660845458507538
1717513037172993000,5.715992919921875,0.0030660629272460938,-0.017971985042095184,0.008894089609384537
1717513037182999600,5.72599951171875,0.00302886962890625,-0.028012216091156006,0.009123444557189941
1717513037193006000,5.736006103515625,-0.006426811218261719,-0.028364643454551697,0.0046403780579566956
1717513037203012600,5.7460126953125,-0.001598358154296875,-0.028814971446990967,0.018961787223815918
1717513037213019100,5.75601904296875,0.0031490325927734375,-0.03386259824037552,0.014314733445644379
1717513037223025700,5.766025634765625,0.0031108856201171875,-0.03892936557531357,0.009745132178068161
1717513037233032400,5.776032470703125,-0.0016374588012695312,-0.029682651162147522,0.009960286319255829
1717513037243039000,5.7860390625,-0.0015964508056640625,-0.030110493302345276,0.010171856731176376
1717513037253045500,5.79604541015625,-0.0015554428100585938,-0.021114014089107513,0.010379891842603683
1717513037263052000,5.806052001953125,0.003192901611328125,-0.03581096976995468,0.01518840342760086
1717513037273058600,5.81605859375,0.012570381164550781,-0.03132481873035431,0.015312820672988892
1717513037283065000,5.826065185546875,-0.001750946044921875,-0.04114251583814621,0.010726571083068848
1717513037293071600,5.836071533203125,0.0030012130737304688,-0.03196220099925995,0.010822076350450516
1717513037303078400,5.846078369140625,0.0029649734497070312,-0.02764347940683365,0.011019267141819
1717513037313085000,5.8560849609375,-0.0017786026000976562,-0.03752254694700241,0.006504572927951813
1717513037323091500,5.866091552734375,-0.006443977355957031,-0.04242456704378128,0.016192305833101273
1717513037333098000,5.876097900390625,-0.006321907043457031,-0.03793147951364517,0.021111849695444107
1717513037343104500,5.8861044921875,0.003215789794921875,-0.042929939925670624,0.007116407155990601
1717513037353111000,5.896111083984375,-0.0015306472778320312,-0.038531698286533356,0.012083932757377625
1717513037363117600,5.90611767578125,-0.006198883056640625,-0.03410346806049347,0.012363340705633163
1717513037373124000,5.9161240234375,-0.001373291015625,-0.039165712893009186,0.012536223977804184
1717513037383131000,5.926130859375,-0.006045341491699219,-0.03472639620304108,0.012706223875284195
1717513037393137400,5.936137451171875,-0.005928993225097656,-0.04459010809659958,0.017581984400749207
1717513037403144000,5.94614404296875,-0.00110626220703125,-0.04006088525056839,0.013061128556728363
1717513037413150500,5.956150390625,-0.005780220031738281,-0.035709887742996216,0.013222374022006989
1717513037423157000,5.966156982421875,-0.0009603500366210938,-0.036037251353263855,0.00877416878938675
1717513037433163500,5.97616357421875,-0.0009279251098632812,-0.03646188974380493,0.009006857872009277
1717513037443170000,5.986170166015625,0.003810882568359375,-0.04619336873292923,0.018756132572889328
1717513037453176800,5.9961767578125,0.0037641525268554688,-0.037031546235084534,0.018925726413726807
1717513037463183400,6.006183349609375,0.0037183761596679688,-0.042148761451244354,0.01909104734659195
1717513037473190000,6.01618994140625,-0.00103759765625,-0.037659674882888794,0.014546465128660202
1717513037483196400,6.026196533203125,0.008411407470703125,-0.04266316443681717,0.014578238129615784
1717513037493203000,6.036202880859375,0.008286476135253906,-0.038165509700775146,0.014714207500219345
1717513037503209500,6.04620947265625,0.0034551620483398438,-0.03845198452472687,0.014846459031105042
1717513037513216000,6.056216064453125,-0.0012950897216796875,-0.04344230145215988,0.0198916457593441
1717513037523222500,6.066222412109375,-0.005965232849121094,-0.043743543326854706,0.020042333751916885
1717513037533229300,6.076229248046875,-0.005848884582519531,-0.03933115303516388,0.015378635376691818
1717513037543235800,6.08623583984375,-0.001026153564453125,-0.039701446890830994,0.015499792993068695
1717513037553242400,6.096242431640625,-0.0009918212890625,-0.03535640984773636,0.020329002290964127
1717513037563249000,6.106248779296875,0.003749847412109375,-0.04050099849700928,0.015763793140649796
1717513037573255400,6.11625537109375,-0.0010023117065429688,-0.04095451533794403,0.01598326861858368
1717513037583262000,6.126261962890625,-0.005677223205566406,-0.046006374061107635,0.016094334423542023
1717513037593268500,6.1362685546875,0.0038499832153320312,-0.04145298898220062,0.01620503142476082
1717513037603275300,6.146275146484375,-0.000904083251953125,-0.05130781978368759,0.021125752478837967
1717513037613281800,6.15628173828125,0.00383758544921875,-0.04206131398677826,0.021254368126392365
1717513037623288300,6.166288330078125,-0.00091552734375,-0.047197408974170685,0.026194199919700623
1717513037633294800,6.176294921875,0.0038251876831054688,-0.04272742569446564,0.016719374805688858
1717513037643301400,6.18630126953125,-0.0009279251098632812,-0.047852419316768646,0.016922928392887115
1717513037653308000,6.196307861328125,-0.0008945465087890625,-0.04808012396097183,0.021831687539815903
1717513037663314400,6.206314453125,0.0038471221923828125,-0.04359543323516846,0.017241433262825012
1717513037673321200,6.2163212890625,0.0038003921508789062,-0.04860267788171768,0.017539549618959427
1717513037683327700,6.22632763671875,-0.0009527206420898438,-0.04892116039991379,0.022438034415245056
1717513037693334300,6.236334228515625,-0.005626678466796875,-0.049131058156490326,0.022649548947811127
1717513037703341000,6.246341064453125,0.003902435302734375,-0.044628843665122986,0.018045667558908463
1717513037713347600,6.25634765625,-0.0008516311645507812,-0.04501354694366455,0.02303898334503174
1717513037723354000,6.26635400390625,0.0038890838623046875,-0.04528796672821045,0.02784733474254608
1717513037733361000,6.27636083984375,-0.005573272705078125,-0.04566168785095215,0.013842899352312088
1717513037743367400,6.286367431640625,-0.0054607391357421875,-0.050738342106342316,0.01890471950173378
1717513037753374000,6.2963740234375,0.004067420959472656,-0.060438379645347595,0.019071847200393677
1717513037763380700,6.306380615234375,0.004017829895019531,-0.04633051156997681,0.02394479140639305
1717513037773387300,6.31638720703125,0.008678436279296875,-0.05129217356443405,0.014713991433382034
1717513037783393800,6.326393798828125,0.0038433074951171875,-0.04675394296646118,0.024368170648813248
1717513037793400600,6.336400634765625,0.0037984848022460938,-0.05181244760751724,0.019734110683202744
1717513037803407000,6.346406982421875,0.008462905883789062,-0.05197415500879288,0.024699300527572632
1717513037813413600,6.35641357421875,-0.005785942077636719,-0.04742519557476044,0.015351127833127975
1717513037823420400,6.36642041015625,0.008456230163574219,-0.05247188359498978,0.02499469742178917
1717513037833427000,6.376427001953125,0.008336067199707031,-0.052725888788700104,0.025163620710372925
1717513037843433500,6.38643359375,0.00821685791015625,-0.048267677426338196,0.015807710587978363
1717513037853440300,6.396440185546875,-0.006026268005371094,-0.04388318210840225,0.020735085010528564
1717513037863446800,6.40644677734375,0.0035114288330078125,-0.048988938331604004,0.02087174355983734
1717513037873453300,6.416453369140625,0.0034723281860351562,-0.05400959402322769,0.025714721530675888
1717513037883460000,6.426460205078125,0.0034341812133789062,-0.054237984120845795,0.021059788763523102
1717513037893466600,6.436466552734375,-0.001312255859375,-0.049753978848457336,0.021191038191318512
1717513037903473200,6.44647314453125,0.00344085693359375,-0.05486515909433365,0.016714774072170258
1717513037913480000,6.45647998046875,0.0034036636352539062,-0.05507930368185043,0.02173031121492386
1717513037923486500,6.466486572265625,-0.001338958740234375,-0.060101740062236786,0.02666226029396057
1717513037933493000,6.476492919921875,0.00341033935546875,-0.06012532860040665,0.026700139045715332
1717513037943499800,6.486499755859375,-0.006043434143066406,-0.05083461105823517,0.026737384498119354
1717513037953506300,6.49650634765625,0.0034942626953125,-0.046407319605350494,0.026670735329389572
1717513037963512800,6.506512939453125,-0.0012502670288085938,-0.04686567932367325,0.022103141993284225
1717513037973519600,6.51651953125,-0.001209259033203125,-0.05663096159696579,0.022215403616428375
1717513037983526100,6.526526123046875,0.0035409927368164062,-0.061626873910427094,0.017620403319597244
1717513037993532700,6.53653271484375,0.0035037994384765625,-0.057122983038425446,0.022517573088407516
1717513038003539200,6.546539306640625,0.003467559814453125,-0.057402752339839935,0.03214499354362488
1717513038013546000,6.5565458984375,-0.001277923583984375,-0.04815738648176193,0.027382899075746536
1717513038023552500,6.566552490234375,-0.0012359619140625,-0.0531919002532959,0.027408767491579056
1717513038033559000,6.57655908203125,-0.001194000244140625,-0.06285109370946884,0.022828873246908188
1717513038043565600,6.586565673828125,-0.005860328674316406,-0.05361819267272949,0.0276392363011837
1717513038053572000,6.596572021484375,0.0036754608154296875,-0.05385306477546692,0.02295222505927086
1717513038063578600,6.60657861328125,-0.001071929931640625,-0.04947870224714279,0.027863800525665283
1717513038073585200,6.616585205078125,0.0036773681640625,-0.05459444224834442,0.02798491343855858
1717513038083592000,6.626592041015625,0.00363922119140625,-0.054916322231292725,0.023395415395498276
1717513038093598500,6.636598388671875,-0.00110626220703125,-0.0646500363945961,0.028299611061811447
1717513038103605000,6.64660498046875,0.0036411285400390625,-0.05528385937213898,0.023601599037647247
1717513038113611500,6.656611572265625,-0.0011053085327148438,-0.06501143425703049,0.028399087488651276
1717513038123618000,6.6666181640625,-0.0010633468627929688,-0.05574186146259308,0.023804321885108948
1717513038133624600,6.67662451171875,0.0036859512329101562,-0.05133601278066635,0.02399309352040291
1717513038143631000,6.686631103515625,-0.0010614395141601562,-0.06112939864397049,0.0240754596889019
1717513038153637600,6.6966376953125,0.0036878585815429688,-0.05663377046585083,0.028968315571546555
1717513038163644400,6.70664453125,-0.005766868591308594,-0.05692166090011597,0.02436242625117302
1717513038173651000,6.71665087890625,-0.0056476593017578125,-0.06191267818212509,0.029252149164676666
1717513038183657500,6.726657470703125,-0.005530357360839844,-0.062111906707286835,0.024643175303936005
1717513038193664000,6.7366640625,0.004004478454589844,-0.052994512021541595,0.029629819095134735
1717513038203670500,6.74667041015625,0.003962516784667969,-0.06275955587625504,0.025117814540863037
1717513038213677000,6.756677001953125,0.0039196014404296875,-0.05823671817779541,0.02057608589529991
1717513038223683600,6.76668359375,-0.0008296966552734375,-0.06320645660161972,0.020921919494867325
1717513038233690400,6.7766904296875,0.0039157867431640625,-0.05867615342140198,0.02586732804775238
1717513038243697000,6.78669677734375,-0.0008344650268554688,-0.06363856047391891,0.026021718978881836
1717513038253703400,6.796703369140625,0.008622169494628906,-0.059203654527664185,0.030883803963661194
1717513038263710000,6.8067099609375,0.003795623779296875,-0.06426054984331131,0.030954591929912567
1717513038273716500,6.816716552734375,-0.0009527206420898438,-0.06442130357027054,0.031024202704429626
1717513038283723000,6.826722900390625,-0.000911712646484375,-0.06468195468187332,0.03109433501958847
1717513038293729500,6.8367294921875,0.008543968200683594,-0.06483566015958786,0.026453010737895966
1717513038303736300,6.846736328125,0.008426666259765625,-0.06509009748697281,0.03130624443292618
1717513038313742800,6.856742919921875,0.00360107421875,-0.06052844226360321,0.026661403477191925
1717513038323749400,6.866749267578125,0.0035657882690429688,-0.05604282766580582,0.026802577078342438
1717513038333756000,6.876755859375,0.00353240966796875,-0.06115175783634186,0.02704637497663498
1717513038343762400,6.886762451171875,0.003498077392578125,-0.06136368215084076,0.031891435384750366
1717513038353769000,6.89676904296875,0.0034656524658203125,-0.06638393551111221,0.03675902262330055
1717513038363775500,6.906775390625,0.0034341812133789062,-0.06661192327737808,0.036836888641119
1717513038373782000,6.916781982421875,0.0034017562866210938,-0.07144144922494888,0.02749626338481903
1717513038383788800,6.926788818359375,0.0033712387084960938,-0.06687655299901962,0.032437123358249664
1717513038393795300,6.93679541015625,0.0033416748046875,-0.07180563360452652,0.032585322856903076
1717513038403801900,6.9468017578125,-0.0013980865478515625,-0.062423497438430786,0.03262779116630554
1717513038413808400,6.956808349609375,0.008069038391113281,-0.06742677837610245,0.023252349346876144
1717513038423815000,6.96681494140625,0.0032510757446289062,-0.0676380917429924,0.028055690228939056
1717513038433821400,6.976821533203125,-0.0014858245849609375,-0.0678458884358406,0.028173647820949554
1717513038443828000,6.986827880859375,-0.006142616271972656,-0.06804952770471573,0.023686040192842484
1717513038453834800,6.996834716796875,0.0034017562866210938,-0.06343857944011688,0.033294014632701874
1717513038463841300,7.00684130859375,-0.0013370513916015625,-0.07313353568315506,0.02861606329679489
1717513038473847800,7.016847900390625,-0.0012884140014648438,-0.06854041665792465,0.028726406395435333
1717513038483854300,7.026854248046875,-0.0012407302856445312,-0.06402383744716644,0.028834901750087738
1717513038493860900,7.03686083984375,0.0035152435302734375,-0.06429113447666168,0.03365018963813782
1717513038503867400,7.046867431640625,0.003482818603515625,-0.0692632719874382,0.033674903213977814
1717513038513874000,7.0568740234375,0.0034513473510742188,-0.07415183633565903,0.028992339968681335
1717513038523880400,7.06688037109375,-0.005995750427246094,-0.06954175978899002,0.02919968217611313
1717513038533887200,7.07688720703125,-0.0011606216430664062,-0.06500847637653351,0.03400890529155731
1717513038543893800,7.086893798828125,-0.0011138916015625,-0.06996864825487137,0.029422305524349213
1717513038553900300,7.096900390625,0.008348464965820312,-0.065428227186203,0.029519207775592804
1717513038563906800,7.10690673828125,-0.0011816024780273438,-0.06096351891756058,0.029614515602588654
1717513038573913300,7.116913330078125,-0.001132965087890625,-0.06609366834163666,0.029811501502990723
1717513038583919900,7.126919921875,0.0036211013793945312,-0.07574362307786942,0.034610532224178314
1717513038593926400,7.136926513671875,0.0035848617553710938,-0.061587221920490265,0.03932782635092735
1717513038603933200,7.14693310546875,0.0035524368286132812,-0.06660369038581848,0.029945731163024902
1717513038613939700,7.156939697265625,-0.0011892318725585938,-0.06682796776294708,0.03474254161119461
1717513038623946200,7.1669462890625,0.0035686492919921875,-0.07186036556959152,0.03485406935214996
1717513038633952800,7.176952880859375,-0.0011730194091796875,-0.06728844344615936,0.030151881277561188
1717513038643959300,7.186959228515625,-0.0011243820190429688,-0.07231388241052628,0.030338160693645477
1717513038653965800,7.1969658203125,0.0036296844482421875,-0.07244298607110977,0.03983703628182411
1717513038663972400,7.206972412109375,0.0035963058471679688,-0.0772785171866417,0.030446477234363556
1717513038673979100,7.216979248046875,0.0035657882690429688,-0.07271955162286758,0.03062961995601654
1717513038683985700,7.226985595703125,0.0035333633422851562,-0.07284189015626907,0.026101116091012955
1717513038693992200,7.2369921875,0.0035037994384765625,-0.06835685670375824,0.026356693357229233
1717513038703998700,7.246998779296875,-0.0012359619140625,-0.06855189800262451,0.035921938717365265
1717513038714005200,7.257005126953125,0.008230209350585938,-0.06874369084835052,0.03130523860454559
1717513038724011800,7.26701171875,-0.0012950897216796875,-0.07374417036771774,0.026765506714582443
1717513038734018300,7.277018310546875,0.008172035217285156,-0.07384943217039108,0.036427222192287445
1717513038744024800,7.28702490234375,0.00806427001953125,-0.06924435496330261,0.03180211782455444
1717513038754031600,7.297031494140625,0.0032520294189453125,-0.0696311891078949,0.031962715089321136
1717513038764038100,7.3070380859375,0.0032253265380859375,-0.07451360672712326,0.032017357647418976
1717513038774044700,7.317044677734375,0.007909774780273438,-0.07470934838056564,0.036882974207401276
1717513038784051200,7.32705126953125,0.0030994415283203125,-0.07490257173776627,0.03695710748434067
1717513038794057700,7.3370576171875,-0.0016307830810546875,-0.07509184628725052,0.032323211431503296
1717513038804064300,7.347064208984375,-0.0015745162963867188,-0.07527794688940048,0.03237186372280121
1717513038814070800,7.35707080078125,-0.00151824951171875,-0.08016879111528397,0.0372333824634552
1717513038824077600,7.36707763671875,-0.0014629364013671875,-0.07085306942462921,0.03259487450122833
1717513038834084000,7.377083984375,-0.0014104843139648438,-0.07100652158260345,0.03274226933717728
1717513038844090600,7.387090576171875,-0.0013580322265625,-0.07126067578792572,0.037492536008358
1717513038854097200,7.39709716796875,-0.0013065338134765625,-0.07621919363737106,0.03274643421173096
1717513038864103700,7.407103759765625,0.0034532546997070312,-0.076386459171772,0.03749663382768631
1717513038874110200,7.417110107421875,-0.005991935729980469,-0.0765509381890297,0.03756234049797058
1717513038884116700,7.42711669921875,0.008260726928710938,-0.07660939544439316,0.037523671984672546
1717513038894123300,7.437123291015625,-0.0012645721435546875,-0.07206155359745026,0.037588924169540405
1717513038904130000,7.447130126953125,0.0034952163696289062,-0.06758951395750046,0.03765308856964111
1717513038914136600,7.457136474609375,-0.0012426376342773438,-0.0820271298289299,0.03290250152349472
1717513038924143000,7.46714306640625,-0.0011920928955078125,-0.07738973945379257,0.037751562893390656
1717513038934149600,7.477149658203125,-0.0011425018310546875,-0.06812026351690292,0.03310441970825195
1717513038944156200,7.48715625,0.008324623107910156,-0.07794294506311417,0.03314005583524704
1717513038954162700,7.49716259765625,0.0035076141357421875,-0.07808146625757217,0.03327838331460953
1717513038964169500,7.50716943359375,0.00347900390625,-0.07821767777204514,0.03812301903963089
1717513038974176000,7.517176025390625,0.008160591125488281,-0.07835163921117783,0.04299018159508705
1717513038984182500,7.5271826171875,-0.001361846923828125,-0.07848412543535233,0.03364861011505127
1717513038994189300,7.537189208984375,0.0034008026123046875,-0.07861364632844925,0.03388174623250961
1717513039004195800,7.54719580078125,-0.0013341903686523438,-0.07403241097927094,0.03400774300098419
1717513039014202400,7.557202392578125,-0.00128173828125,-0.07423612475395203,0.03402835875749588
1717513039024209200,7.567209228515625,0.0034780502319335938,-0.07443642616271973,0.03404863178730011
1717513039034215700,7.577215576171875,0.008159637451171875,-0.07934276014566422,0.038878604769706726
1717513039044222200,7.58722216796875,0.0033473968505859375,-0.07485266029834747,0.02950413152575493
1717513039054229000,7.59722900390625,-0.0013856887817382812,-0.07975056022405624,0.02970493957400322
1717513039064235500,7.607235595703125,0.0033769607543945312,-0.0657331719994545,0.03931774944067001
1717513039074242000,7.617241943359375,0.0033512115478515625,-0.07078380137681961,0.034644559025764465
1717513039084248800,7.627248779296875,0.008034706115722656,-0.0804588571190834,0.03946646302938461
1717513039094255400,7.63725537109375,0.0032215118408203125,-0.08045297116041183,0.03478895127773285
1717513039104262000,7.647261962890625,-0.0015077590942382812,-0.07594436407089233,0.03960845619440079
1717513039114268700,7.6572685546875,0.0032567977905273438,-0.07611621916294098,0.025513246655464172
1717513039124275200,7.667275146484375,0.0032329559326171875,-0.07157661765813828,0.03980126976966858
1717513039134281700,7.67728173828125,-0.001499176025390625,-0.07652987539768219,0.03501676768064499
1717513039144288500,7.68728857421875,0.007973670959472656,-0.08610916882753372,0.035123877227306366
1717513039154295000,7.697294921875,-0.0015459060668945312,-0.07669444382190704,0.039937809109687805
1717513039164301600,7.707301513671875,-0.0014896392822265625,-0.0815616324543953,0.03996477276086807
1717513039174308400,7.717308349609375,0.007984161376953125,-0.081639863550663,0.03538409620523453
1717513039184315000,7.72731494140625,-0.0015354156494140625,-0.07229959219694138,0.03548509627580643
1717513039194321400,7.7373212890625,0.0032300949096679688,-0.0819493904709816,0.03558441251516342
1717513039204328200,7.747328125,0.007917404174804688,-0.08683226257562637,0.03568394482135773
1717513039214334700,7.757334716796875,-0.0015993118286132812,-0.08221734315156937,0.031071361154317856
1717513039224341200,7.76734130859375,-0.0015420913696289062,-0.07286746054887772,0.0359528511762619
1717513039234348000,7.77734814453125,-0.001483917236328125,-0.08261106163263321,0.03133578225970268
1717513039244354600,7.7873544921875,0.0032806396484375,-0.07325457781553268,0.03621285408735275
1717513039254361000,7.797361083984375,-0.0014495849609375,-0.08299172669649124,0.04100865125656128
1717513039264367900,7.807367919921875,0.003314971923828125,-0.07833750545978546,0.036410585045814514
1717513039274374400,7.81737451171875,0.0032911300659179688,-0.07376084476709366,0.03649449348449707
1717513039284381000,7.827380859375,-0.0014410018920898438,-0.07867765426635742,0.036577008664608
1717513039294387700,7.8373876953125,-0.0013856887817382812,-0.08351250737905502,0.04136674106121063
1717513039304394200,7.847394287109375,0.0033769607543945312,-0.07884956896305084,0.0413680374622345
1717513039314400800,7.85740087890625,0.003353118896484375,-0.07436762005090714,0.04126604646444321
1717513039324407300,7.8674072265625,0.003330230712890625,-0.08408617228269577,0.04116576164960861
1717513039334413800,7.877413818359375,-0.0014009475708007812,-0.07951696217060089,0.03646182268857956
1717513039344420400,7.88742041015625,0.0033626556396484375,-0.07962922751903534,0.036544881761074066
1717513039354427000,7.897427001953125,0.00804901123046875,-0.08455149084329605,0.036626555025577545
1717513039364433700,7.90743359375,0.0032396316528320312,-0.08468235284090042,0.03681204468011856
1717513039374440200,7.917440185546875,0.0032196044921875,-0.08951962739229202,0.041599780321121216
1717513039384446700,7.92744677734375,0.0031995773315429688,-0.08485988527536392,0.041597217321395874
1717513039394453200,7.937453369140625,-0.006237030029296875,-0.08498639613389969,0.03698938339948654
1717513039404459800,7.947459716796875,-0.001392364501953125,-0.08500749617815018,0.04177226126194
1717513039414466300,7.95746630859375,0.0033731460571289062,-0.0851307287812233,0.03706011921167374
1717513039424472800,7.967472900390625,-0.0013580322265625,-0.08054409921169281,0.037133216857910156
1717513039434479400,7.977479248046875,0.003406524658203125,-0.08545031398534775,0.03720699995756149
1717513039444486100,7.987486083984375,-0.0013265609741210938,-0.0807550847530365,0.03727765381336212
1717513039454492700,7.99749267578125,-0.001270294189453125,-0.08094996213912964,0.037347130477428436
