time,seconds_elapsed,z,y,x
1717512929996814600,0.066814697265625,0,0,0
1717512930006814700,0.076814697265625,0,0.009596288204193115,-0.0024082250893115997
1717512930016815600,0.086815673828125,0,0.0031613335013389587,0.014267262071371078
1717512930026816800,0.096816650390625,0.01795673370361328,0.009504199028015137,0.007088102400302887
1717512930036819000,0.10681884765625,-0.0047893524169921875,0.011465273797512054,0.005648024380207062
1717512930046822100,0.116822265625,-0.0079803466796875,0.005509465932846069,0.004684165120124817
1717512930056826600,0.12682666015625,0.0013675689697265625,0.00475582480430603,0.008005354553461075
1717512930066832000,0.136831787109375,0.0011959075927734375,-0.004184238612651825,-0.009779289364814758
1717512930076838400,0.14683837890625,0.005320549011230469,0.0004784241318702698,-0.01297401636838913
1717512930086846000,0.156845947265625,0.0047893524169921875,0.00468079000711441,-0.020321018993854523
1717512930096854500,0.1668544921875,0.004353523254394531,0.004195302724838257,-0.005535338073968887
1717512930106864000,0.176864013671875,-0.004787445068359375,0.0037852227687835693,0.003678925335407257
1717512930116874200,0.186874267578125,0.008841514587402344,-0.0009869113564491272,0.003369998186826706
1717512930126884900,0.196884765625,-0.005127906799316406,-0.005424067378044128,0.0031031928956508636
1717512930136895700,0.206895751953125,0.004151344299316406,0.003912322223186493,0.007339268922805786
1717512930146907000,0.216906982421875,-0.0005979537963867188,-0.0007847398519515991,0.0068542249500751495
1717512930156917200,0.226917236328125,-0.0005626678466796875,0.0038048848509788513,0.002016685903072357
1717512930166923500,0.236923583984375,0.0039920806884765625,-0.0055135563015937805,-0.002644255757331848
1717512930176930000,0.246929931640625,0.0037813186645507812,0.0038863569498062134,-0.002531692385673523
1717512930186936300,0.256936279296875,-0.010053634643554688,-0.0009191930294036865,0.0022179335355758667
1717512930196942800,0.26694287109375,-0.005013465881347656,-0.0009382367134094238,-0.0024748146533966064
1717512930206949000,0.27694921875,0.004355430603027344,0.003612212836742401,0.0020814351737499237
1717512930216955600,0.28695556640625,0.008745193481445312,-0.0010877400636672974,-0.0026161372661590576
1717512930226962000,0.2969619140625,0.0037927627563476562,0.0034832656383514404,0.002054840326309204
1717512930236968400,0.306968505859375,0.0036420822143554688,-0.0013162493705749512,-0.002651181071996689
1717512930246974700,0.316974609375,0.0035009384155273438,0.007980354130268097,0.00202801451086998
1717512930256981200,0.326981201171875,-0.0012407302856445312,0.0031113028526306152,-0.0026851966977119446
1717512930266987800,0.33698779296875,-0.00119781494140625,-0.006196983158588409,-0.007233764976263046
1717512930276994000,0.346994140625,0.0034656524658203125,0.0033009499311447144,0.002133779227733612
1717512930287000600,0.35700048828125,0.00334930419921875,0.007857412099838257,-0.0025932863354682922
1717512930297006800,0.3670068359375,-0.010661125183105469,-0.006260119378566742,-0.0025368109345436096
1717512930307013400,0.377013427734375,-0.005690574645996094,0.003352522850036621,0.002255704253911972
1717512930317019600,0.38701953125,0.008412361145019531,0.0031869783997535706,0.006803419440984726
1717512930327026200,0.397026123046875,0.0035161972045898438,0.007778674364089966,0.006576061248779297
1717512930337032400,0.407032470703125,-0.0058879852294921875,-0.0017088577151298523,0.0017092972993850708
1717512930347039000,0.4170390625,-0.005724906921386719,0.0030319318175315857,-0.003122929483652115
1717512930357045200,0.427045166015625,-0.0055694580078125,0.0028858184814453125,-0.0030658505856990814
1717512930367051800,0.4370517578125,-0.005421638488769531,0.0027456581592559814,-0.007674906402826309
1717512930377058000,0.44705810546875,-0.0006160736083984375,0.007276616990566254,0.0019280388951301575
1717512930387064600,0.457064697265625,0.0040683746337890625,-0.006975680589675903,-0.002918574959039688
1717512930397070800,0.46707080078125,-0.005374908447265625,-0.0020958632230758667,0.0017968229949474335
1717512930407077400,0.477077392578125,0.004100799560546875,-0.0020074620842933655,0.0017276890575885773
1717512930417083600,0.487083740234375,0.004006385803222656,0.0026518553495407104,0.001660078763961792
1717512930427090200,0.497090087890625,-0.000762939453125,-0.006831608712673187,0.006275549530982971
1717512930437096400,0.507096435546875,-0.0054264068603515625,0.0025170817971229553,0.0015292651951313019
1717512930447103000,0.51710302734375,0.0040607452392578125,-0.002286463975906372,0.0014685466885566711
1717512930457109200,0.527109130859375,0.008662223815917969,-0.0023023635149002075,-0.0032767094671726227
1717512930467115800,0.53711572265625,0.0037937164306640625,-0.007007621228694916,0.0014526993036270142
1717512930477122300,0.547122314453125,-0.0009737014770507812,0.002452149987220764,-0.0031923167407512665
1717512930487128600,0.557128662109375,-0.0009555816650390625,0.0024413391947746277,0.0015366412699222565
1717512930497135000,0.567135009765625,0.0037565231323242188,-0.002262800931930542,0.0014789775013923645
1717512930507141400,0.577141357421875,-0.001010894775390625,0.002412348985671997,0.0061193108558654785
1717512930517148000,0.58714794921875,0.0037059783935546875,0.002302125096321106,0.0058733150362968445
1717512930527154200,0.597154296875,0.0036363601684570312,0.006997503340244293,0.005736984312534332
1717512930537160700,0.60716064453125,0.008270263671875,0.006908580660820007,0.005502041429281235
1717512930547167000,0.6171669921875,-0.005985260009765625,0.0020179525017738342,0.0006743855774402618
1717512930557173500,0.627173583984375,0.0035295486450195312,0.0019173547625541687,-0.008774906396865845
1717512930567179800,0.6371796875,0.008175849914550781,-0.002886362373828888,-0.003945372998714447
1717512930577186300,0.647186279296875,0.0033292770385742188,0.006615795195102692,-0.003905031830072403
1717512930587192600,0.657192626953125,0.00327301025390625,0.0018353015184402466,-0.0038675665855407715
1717512930597199000,0.66719921875,-0.0014905929565429688,0.006552077829837799,0.0007757321000099182
1717512930607205400,0.677205322265625,-0.0061740875244140625,0.0016698241233825684,0.005341645330190659
1717512930617212000,0.6872119140625,-0.0013637542724609375,0.0016803517937660217,0.005225002765655518
1717512930627218200,0.69721826171875,0.003368377685546875,0.006296083331108093,0.00040170177817344666
1717512930637224700,0.707224609375,-0.0013971328735351562,0.0015213191509246826,-0.0044433437287807465
1717512930647231000,0.71723095703125,-0.0013751983642578125,0.0015347301959991455,-0.004395820200443268
1717512930657237500,0.727237548828125,-0.0060596466064453125,-0.003264300525188446,0.00035842135548591614
1717512930667243800,0.737243896484375,-0.001251220703125,-0.0031715333461761475,0.00032483041286468506
1717512930677250300,0.747250244140625,0.00818634033203125,-0.003080315887928009,0.00029179826378822327
1717512930687256800,0.7572568359375,-0.006076812744140625,0.001717984676361084,0.00015609711408615112
1717512930697263000,0.76726318359375,-0.0012683868408203125,-0.002877667546272278,0.000022660940885543823
1717512930707269600,0.77726953125,-0.0012483596801757812,0.006626240909099579,-0.00010747089982032776
1717512930717276000,0.78727587890625,-0.0012273788452148438,-0.0028630271553993225,-0.000030077993869781494
1717512930727282400,0.797282470703125,-0.0059146881103515625,-0.0028801634907722473,-0.000057194381952285767
1717512930737288700,0.807288818359375,0.00830841064453125,0.0019147992134094238,-0.00008385628461837769
1717512930747295200,0.817295166015625,0.0034608840942382812,-0.002787351608276367,-0.0049218907952308655
1717512930757301500,0.827301513671875,0.0034027099609375,-0.0027025341987609863,-0.004867475479841232
1717512930767308000,0.83730810546875,0.008054733276367188,-0.002619132399559021,-0.0000021532177925109863
1717512930777314300,0.847314208984375,-0.0014972686767578125,-0.0025371164083480835,-0.0001329556107521057
1717512930787320800,0.85732080078125,-0.0061817169189453125,0.002252131700515747,-0.0001583583652973175
1717512930797327000,0.8673271484375,-0.0013713836669921875,0.0022529587149620056,0.004525262862443924
1717512930807333600,0.877333740234375,-0.0013494491577148438,-0.0024548321962356567,-0.0002863742411136627
1717512930817340000,0.88733984375,0.0033807754516601562,-0.002375558018684387,-0.0003092177212238312
1717512930827346400,0.897346435546875,-0.001384735107421875,0.002410992980003357,0.004376918077468872
1717512930837352700,0.907352783203125,-0.0013628005981445312,0.0024091675877571106,0.004276353865861893
1717512930847359200,0.917359130859375,0.0033674240112304688,0.002407379448413849,-0.0005311332643032074
1717512930857365500,0.927365478515625,-0.0013980865478515625,-0.002302981913089752,-0.00525849312543869
1717512930867372000,0.9373720703125,0.0033330917358398438,-0.0022262409329414368,0.004115503281354904
1717512930877378300,0.94737841796875,0.007985115051269531,0.002557821571826935,-0.0006893053650856018
1717512930887384800,0.957384765625,-0.0015668869018554688,-0.00205182284116745,-0.0008086562156677246
1717512930897391400,0.967391357421875,0.00316619873046875,-0.006584644317626953,0.00378258153796196
1717512930907397600,0.977397705078125,0.012528419494628906,0.0030838921666145325,-0.005828499794006348
1717512930917404200,0.987404052734375,0.007609367370605469,0.0031740814447402954,-0.0012568309903144836
1717512930927410400,0.997410400390625,0.0027723312377929688,0.0032627731561660767,-0.00617855042219162
1717512930937417000,1.0074169921875,0.007431983947753906,-0.0012553855776786804,0.0032107755541801453
1717512930947423200,1.01742333984375,-0.0021123886108398438,-0.0009896457195281982,-0.0017854124307632446
1717512930957429800,1.0274296875,0.002628326416015625,-0.0007283315062522888,0.0028220973908901215
1717512930967436000,1.03743603515625,-0.0021266937255859375,-0.00047137588262557983,-0.0020643845200538635
1717512930977442600,1.047442626953125,-0.02092742919921875,0.009095266461372375,0.002547774463891983
1717512930987448800,1.05744873046875,-0.05353832244873047,0.008982419967651367,-0.03508680313825607
1717512930997455400,1.067455322265625,0.01798248291015625,-0.028797701001167297,-0.015592038631439209
1717512931007461600,1.077461669921875,0.07889366149902344,0.004680804908275604,-0.006045814603567123
1717512931017468200,1.08746826171875,-0.00717926025390625,0.004847623407840729,0.012655254453420639
1717512931027474400,1.097474365234375,-0.044730186462402344,-0.004508771002292633,0.0028962939977645874
1717512931037481000,1.10748095703125,0.04076862335205078,0.0003133341670036316,-0.006596788763999939
1717512931047487200,1.1174873046875,0.016539573669433594,0.0007593929767608643,-0.002218782901763916
1717512931057493800,1.12749365234375,-0.09203338623046875,-0.01804928481578827,0.007311005145311356
1717512931067500000,1.1375,0.027215957641601562,-0.003687523305416107,0.011870134621858597
1717512931077506600,1.147506591796875,0.0361785888671875,0.019955284893512726,-0.007189705967903137
1717512931087513000,1.15751318359375,0.0167388916015625,-0.017800889909267426,0.006926104426383972
1717512931097519400,1.167519287109375,-0.08242034912109375,0.01549433171749115,-0.011948108673095703
1717512931107526000,1.17752587890625,0.06492042541503906,0.0010458305478096008,-0.006963741034269333
1717512931117532200,1.1875322265625,0.016748428344726562,-0.003435380756855011,-0.0023731589317321777
1717512931127538700,1.19753857421875,-0.054160118103027344,-0.008048348128795624,0.011764563620090485
1717512931137545000,1.207544921875,0.01737213134765625,0.015563912689685822,-0.016607489436864853
1717512931147551500,1.217551513671875,0.04062461853027344,0.005925700068473816,0.011893261224031448
1717512931157557800,1.227557861328125,-0.04010009765625,-0.003448665142059326,0.011564187705516815
1717512931167564300,1.237564208984375,-0.015888214111328125,0.0059611499309539795,-0.002678733319044113
1717512931177570600,1.247570556640625,0.05500316619873047,0.0012947842478752136,0.002046894282102585
1717512931187577000,1.2575771484375,-0.030670166015625,0.0014148056507110596,-0.0027234405279159546
1717512931197583400,1.267583251953125,-0.0066165924072265625,-0.007987596094608307,0.0020029284060001373
1717512931207590000,1.27758984375,0.02645397186279297,0.0014978647232055664,0.0018387027084827423
1717512931217596200,1.28759619140625,0.0024690628051757812,-0.012614525854587555,0.00648903101682663
1717512931227602700,1.297602783203125,-0.0634918212890625,-0.02188596874475479,0.0016456954181194305
1717512931237609000,1.30760888671875,0.19184017181396484,0.024880602955818176,-0.016521215438842773
1717512931247615500,1.317615478515625,0.23100852966308594,0.04887368530035019,-0.03101775050163269
1717512931257621800,1.327621826171875,-0.43204784393310547,-0.059890713542699814,0.016453208401799202
1717512931267628300,1.337628173828125,0.15902328491210938,0.020675882697105408,-0.01199699193239212
1717512931277634800,1.347634765625,0.18462085723876953,0.02528473734855652,-0.035574138164520264
1717512931287641300,1.357641357421875,-0.2563638687133789,-0.035690005868673325,0.025790806859731674
1717512931297647600,1.367647705078125,-0.13907432556152344,-0.0029221251606941223,0.007119372487068176
1717512931307654100,1.377654052734375,0.34822750091552734,0.03483372926712036,-0.04011285677552223
1717512931317660700,1.38766064453125,-0.1237335205078125,-0.021695271134376526,0.04968158155679703
1717512931327667200,1.397667236328125,-0.1263751983642578,-0.012291103601455688,0.02078084647655487
1717512931337673500,1.407673583984375,0.11116218566894531,0.020705848932266235,-0.03588983044028282
1717512931347680000,1.417679931640625,0.10930538177490234,0.006479822099208832,-0.00256560742855072
1717512931357686500,1.4276865234375,-0.231536865234375,-0.026446714997291565,0.020889244973659515
1717512931367692800,1.43769287109375,0.07367897033691406,0.01589367538690567,-0.03557679429650307
1717512931377699300,1.44769921875,0.14307594299316406,0.011165402829647064,-0.006965331733226776
1717512931387705900,1.457705810546875,-0.13240814208984375,-0.021942488849163055,0.016562851145863533
1717512931397712400,1.46771240234375,-0.03602790832519531,0.001798100769519806,-0.007077328860759735
1717512931407718700,1.47771875,0.11995601654052734,0.01593228429555893,-0.016300953924655914
1717512931417725200,1.48772509765625,-0.028013229370117188,-0.01234031468629837,0.016695739701390266
1717512931427731700,1.497731689453125,-0.09346389770507812,-0.0029888227581977844,0.011784501373767853
1717512931437738200,1.50773828125,0.12469005584716797,0.025247715413570404,-0.02129647135734558
1717512931447744500,1.51774462890625,-0.037484169006347656,-0.007888741791248322,0.011783476918935776
1717512931457751000,1.5277509765625,-0.06040191650390625,0.0015950500965118408,0.006954111158847809
1717512931467757600,1.537757568359375,0.020651817321777344,-0.0032050013542175293,-0.007108733057975769
1717512931477763800,1.547763916015625,0.043849945068359375,0.015721164643764496,-0.011726472526788712
1717512931487770400,1.557770263671875,-0.06988811492919922,-0.012754052877426147,0.021298274397850037
1717512931497777000,1.56777685546875,0.03957557678222656,0.01564522087574005,-0.01194126158952713
1717512931507783400,1.577783447265625,0.015372276306152344,-0.0034115463495254517,0.002355925738811493
1717512931517789700,1.587789794921875,-0.036678314208984375,-0.0034195631742477417,0.002185788005590439
1717512931527796200,1.597796142578125,-0.012522697448730469,-0.00813603401184082,0.0023282133042812347
1717512931537802800,1.607802734375,0.034770965576171875,0.015581279993057251,-0.002445776015520096
1717512931547809300,1.617809326171875,-0.022312164306640625,-0.008183009922504425,0.0021727196872234344
1717512931557815600,1.627815673828125,-0.012520790100097656,-0.00821472704410553,-0.0024964772164821625
1717512931567822000,1.637822021484375,0.01594066619873047,0.00598347932100296,-0.011898644268512726
1717512931577828600,1.64782861328125,-0.017286300659179688,0.0012139007449150085,-0.0023097284138202667
1717512931587835000,1.6578349609375,-0.007579803466796875,-0.012996986508369446,-0.002298858016729355
1717512931597841400,1.66784130859375,0.011382102966308594,0.0012805536389350891,-0.0021849311888217926
1717512931607848000,1.677847900390625,0.011191368103027344,0.01071476936340332,-0.006884735077619553
1717512931617854500,1.6878544921875,-0.01724720001220703,-0.01296842098236084,0.012036774307489395
1717512931627860700,1.69786083984375,0.011290550231933594,0.006120108067989349,-0.011735476553440094
1717512931637867300,1.7078671875,-0.0030231475830078125,-0.008069314062595367,0.002661522477865219
1717512931647873800,1.717873779296875,-0.007681846618652344,0.0015207380056381226,-0.006827656179666519
1717512931657880000,1.727880126953125,0.0018625259399414062,-0.007883056998252869,0.007385343313217163
1717512931667886600,1.737886474609375,0.011247634887695312,0.006412483751773834,-0.002182561904191971
1717512931677892900,1.747892822265625,-0.012483596801757812,-0.007781811058521271,0.007243383675813675
1717512931687899400,1.7578994140625,0.0018510818481445312,-0.0030083879828453064,-0.0023221559822559357
1717512931697905700,1.76790576171875,0.001819610595703125,0.006497316062450409,-0.0023110732436180115
1717512931707912200,1.777912109375,0.0017900466918945312,0.001615189015865326,0.0025106221437454224
1717512931717918500,1.78791845703125,-0.002948760986328125,-0.003081962466239929,-0.002164207398891449
1717512931727925000,1.797925048828125,-0.007609367370605469,-0.007701195776462555,0.0025518089532852173
1717512931737931500,1.807931640625,0.006644248962402344,0.0017658844590187073,-0.0022085830569267273
1717512931747937800,1.817937744140625,0.006533622741699219,-0.007654272019863129,0.0026297084987163544
1717512931757944300,1.8279443359375,0.00171661376953125,0.006625555455684662,-0.006841666996479034
1717512931767950600,1.83795068359375,-0.0030193328857421875,0.0017328709363937378,0.00267714262008667
1717512931777957000,1.84795703125,0.011157035827636719,0.001735001802444458,-0.006694834679365158
1717512931787963400,1.85796337890625,-0.01728057861328125,-0.0029705390334129333,0.0029217973351478577
1717512931797970000,1.867969970703125,0.0018415451049804688,0.006529755890369415,-0.001850772649049759
1717512931807976200,1.87797607421875,0.0018110275268554688,-0.0029619261622428894,-0.0017339065670967102
1717512931817982700,1.887982666015625,0.0064907073974609375,-0.007688641548156738,-0.006430681794881821
1717512931827989000,1.897989013671875,-0.012451171875,-0.007627062499523163,0.003178965300321579
1717512931837995500,1.90799560546875,0.011300086975097656,0.001851506531238556,-0.0016014538705348969
1717512931848001800,1.918001708984375,-0.00301361083984375,-0.00766117125749588,0.003011927008628845
1717512931858008300,1.92800830078125,-0.012380599975585938,-0.002786010503768921,-0.0017674043774604797
1717512931868014600,1.9380146484375,0.0019512176513671875,-0.007408708333969116,-0.006364636123180389
1717512931878021000,1.948021240234375,0.0019197463989257812,0.0020681768655776978,-0.006279885768890381
1717512931888027400,1.95802734375,0.001888275146484375,0.0019708871841430664,0.007927734404802322
1717512931898034000,1.968033935546875,0.006564140319824219,-0.0027297288179397583,-0.0016451254487037659
1717512931908040200,1.978040283203125,0.0017452239990234375,0.0020655840635299683,0.0030666887760162354
1717512931918046700,1.988046630859375,-0.007701873779296875,-0.007344089448451996,-0.0017168223857879639
1717512931928053000,1.998052978515625,0.0018444061279296875,0.006842754781246185,-0.0017136186361312866
1717512931938059500,2.0080595703125,-0.0028944015502929688,-0.0027495399117469788,0.0029975809156894684
1717512931948066000,2.018066162109375,0.0018634796142578125,0.00665273517370224,-0.0016842186450958252
1717512931958072300,2.028072265625,0.0018329620361328125,0.006481394171714783,0.003025483340024948
1717512931968078800,2.038078857421875,-0.0029077529907226562,-0.007606126368045807,-0.001760963350534439
1717512931978085000,2.048085205078125,-0.007568359375,0.0019811689853668213,-0.006468042731285095
1717512931988091600,2.058091552734375,0.00197601318359375,0.006597116589546204,-0.006388440728187561
1717512931998098000,2.068097900390625,0.0019435882568359375,-0.0029898062348365784,0.007917508482933044
1717512932008104400,2.0781044921875,0.001911163330078125,0.0018127113580703735,-0.0015572123229503632
1717512932018110700,2.08811083984375,-0.0028285980224609375,-0.007693588733673096,0.0031482838094234467
1717512932028117200,2.0981171875,0.0019283294677734375,0.006501778960227966,-0.006247438490390778
1717512932038123500,2.10812353515625,-0.0028123855590820312,-0.0029789432883262634,0.0033476129174232483
1717512932048130000,2.118130126953125,-0.0027647018432617188,0.0017208009958267212,-0.0014475025236606598
1717512932058136300,2.12813623046875,0.00199127197265625,0.0016342997550964355,-0.001350007951259613
1717512932068142800,2.138142822265625,0.0066661834716796875,0.0016527995467185974,-0.0013575293123722076
1717512932078149000,2.148149169921875,-0.0075702667236328125,0.0015681087970733643,-0.0013650506734848022
1717512932088155600,2.15815576171875,-0.0027341842651367188,-0.003223791718482971,-0.0012703575193881989
1717512932098162000,2.168161865234375,0.0067291259765625,-0.0032264739274978638,-0.001176305115222931
1717512932108168400,2.17816845703125,0.0019073486328125,0.001583106815814972,0.003521434962749481
1717512932118174700,2.1881748046875,0.006585121154785156,0.0015006884932518005,-0.0011730864644050598
1717512932128181200,2.19818115234375,-0.0029420852661132812,-0.0031852945685386658,0.0036265403032302856
1717512932138187800,2.208187744140625,-0.0028944015502929688,-0.0030837878584861755,0.008243799209594727
1717512932148194000,2.218194091796875,-0.0028448104858398438,-0.0030868053436279297,0.008178554475307465
1717512932158200600,2.22820068359375,0.006618499755859375,-0.0029865428805351257,-0.00611463189125061
1717512932168206800,2.238206787109375,-0.007618904113769531,-0.002887144684791565,-0.006044294685125351
1717512932178213400,2.24821337890625,-0.00278472900390625,-0.002789013087749481,-0.0012668222188949585
1717512932188219600,2.2582197265625,-0.0027379989624023438,-0.007503971457481384,0.00332748144865036
1717512932198226200,2.26822607421875,0.0020160675048828125,0.0020890235900878906,0.003342755138874054
1717512932208232400,2.278232421875,0.0019826889038085938,-0.002706572413444519,0.0032542161643505096
1717512932218239000,2.288239013671875,0.0066585540771484375,0.0019952505826950073,-0.006250374019145966
1717512932228245500,2.29824560546875,0.006546974182128906,0.0020136311650276184,-0.006179697811603546
1717512932238251800,2.308251708984375,0.0017290115356445312,0.001928761601448059,0.003306664526462555
1717512932248258300,2.31825830078125,-0.007717132568359375,-0.002759769558906555,0.00332062691450119
1717512932258264800,2.328264892578125,-0.002880096435546875,-0.002661295235157013,-0.001374572515487671
1717512932268271400,2.338271240234375,-0.007540702819824219,-0.0025646016001701355,-0.01070147380232811
1717512932278277600,2.348277587890625,0.0020008087158203125,0.0022394657135009766,0.003567848354578018
1717512932288284200,2.3582841796875,0.00667572021484375,-0.007161952555179596,0.0035761259496212006
1717512932298290700,2.368290771484375,0.006564140319824219,-0.0022807717323303223,0.013001125305891037
1717512932308297000,2.378296875,0.006453514099121094,-0.0021894648671150208,0.0033310875296592712
1717512932318303500,2.388303466796875,0.001636505126953125,-0.0020996779203414917,0.0032394081354141235
1717512932328310000,2.39831005859375,0.0016088485717773438,-0.0020114481449127197,-0.006165340542793274
1717512932338316500,2.408316650390625,-0.0031261444091796875,-0.002028055489063263,0.0033174902200698853
1717512932348322800,2.41832275390625,0.0016345977783203125,0.00266401469707489,-0.0014838241040706635
1717512932358329300,2.428329345703125,-0.0031023025512695312,0.0027753785252571106,-0.0013943016529083252
1717512932368336000,2.4383359375,-0.0030517578125,0.0027814507484436035,-0.006117634475231171
1717512932378342400,2.44834228515625,0.0017080307006835938,-0.0020251870155334473,-0.0013463161885738373
1717512932388348700,2.4583486328125,-0.0030298233032226562,0.0027686581015586853,0.0033462978899478912
1717512932398355200,2.468355224609375,0.006439208984375,-0.006746925413608551,0.0033551789820194244
1717512932408361700,2.47836181640625,0.006331443786621094,0.002729937434196472,0.003260541707277298
1717512932418368000,2.488367919921875,-0.007900238037109375,-0.001974262297153473,0.0032706186175346375
1717512932428374500,2.49837451171875,-0.0030603408813476562,-0.001995265483856201,-0.0015313923358917236
1717512932438381000,2.508381103515625,0.0017004013061523438,-0.002015918493270874,0.007975663989782333
1717512932448387600,2.5183876953125,0.006381034851074219,-0.002037748694419861,-0.001614537090063095
1717512932458393900,2.528393798828125,0.0015659332275390625,0.007461056113243103,-0.0015235356986522675
1717512932468400400,2.538400390625,0.0015392303466796875,-0.0020337700843811035,-0.006247013807296753
1717512932478407000,2.548406982421875,-0.0031957626342773438,-0.0019527748227119446,-0.001473553478717804
1717512932488413400,2.558413330078125,0.0015659332275390625,0.002731136977672577,-0.006197087466716766
1717512932498419700,2.568419677734375,-0.0031690597534179688,-0.002080768346786499,-0.001424834132194519
1717512932508426200,2.57842626953125,0.0015926361083984375,-0.002001553773880005,-0.0013386346399784088
1717512932518432800,2.588432861328125,0.0015668869018554688,-0.0020265132188796997,0.0034557506442070007
1717512932528439000,2.59843896484375,0.00624847412109375,-0.001948826014995575,-0.0013504549860954285
1717512932538445600,2.608445556640625,0.0014352798461914062,-0.001976124942302704,-0.0013680681586265564
1717512932548452000,2.6184521484375,-0.0032968521118164062,-0.006711967289447784,0.003323126584291458
1717512932558458600,2.628458740234375,0.0014677047729492188,0.0074655041098594666,0.0033307746052742004
1717512932568465000,2.63846484375,0.00144195556640625,-0.0067422837018966675,-0.0014736466109752655
1717512932578471400,2.648471435546875,-0.007998466491699219,0.002726256847381592,0.008031018078327179
1717512932588478000,2.65847802734375,0.0015516281127929688,-0.006694287061691284,-0.0014571361243724823
1717512932598484500,2.668484375,0.0015249252319335938,-0.0018325075507164001,0.003234371542930603
1717512932608490800,2.67849072265625,-0.0032091140747070312,-0.006572224199771881,-0.006278112530708313
1717512932618497300,2.688497314453125,-0.003154754638671875,-0.0018153563141822815,0.0033065900206565857
1717512932628503800,2.69850390625,0.0016069412231445312,-0.011263459920883179,0.0033143460750579834
1717512932638510000,2.708510009765625,0.00157928466796875,0.0030922740697860718,-0.001489885151386261
1717512932648516600,2.7185166015625,-0.007863044738769531,-0.0017286613583564758,0.0033063553273677826
1717512932658523100,2.728523193359375,0.0016851425170898438,0.0029482319951057434,-0.0014978274703025818
1717512932668529700,2.73852978515625,-0.0030517578125,-0.001869693398475647,-0.001513402909040451
1717512932678536000,2.748535888671875,0.0017080307006835938,0.0029131174087524414,-0.0061340779066085815
1717512932688542500,2.75854248046875,0.0016794204711914062,0.0029080361127853394,-0.0012617111206054688
1717512932698549000,2.768549072265625,-0.0030574798583984375,0.002903848886489868,-0.0011782124638557434
1717512932708555500,2.778555419921875,0.0017023086547851562,-0.001911662518978119,-0.0011994466185569763
1717512932718561800,2.788561767578125,0.0016727447509765625,0.002873137593269348,-0.005929939448833466
1717512932728568300,2.798568359375,0.0016450881958007812,0.0028708800673484802,0.003648214042186737
1717512932738574800,2.808574951171875,0.0063266754150390625,0.002868741750717163,-0.010477423667907715
1717512932748581000,2.8185810546875,-0.007904052734375,-0.0019443631172180176,0.0038847848773002625
1717512932758587600,2.828587646484375,0.006352424621582031,-0.006573997437953949,0.0037785954773426056
1717512932768594000,2.838593994140625,0.0015392303466796875,0.0028969496488571167,0.0037769488990306854
1717512932778600400,2.848600341796875,-0.0031938552856445312,0.0027932748198509216,0.0037750527262687683
1717512932788606700,2.858606689453125,0.006275177001953125,0.007503189146518707,0.0036686286330223083
1717512932798613200,2.86861328125,-0.0032453536987304688,-0.011510826647281647,0.0036678947508335114
1717512932808619500,2.87861962890625,-0.0031909942626953125,0.002855859696865082,-0.001041807234287262
1717512932818626000,2.8886259765625,0.0015707015991210938,-0.0018509253859519958,-0.0008616000413894653
1717512932828632300,2.89863232421875,-0.007872581481933594,-0.0017707273364067078,-0.0007891356945037842
1717512932838638800,2.908638916015625,-0.003032684326171875,-0.006503008306026459,-0.0008206255733966827
1717512932848645400,2.918645263671875,-0.0029811859130859375,0.0029696226119995117,-0.0007489360868930817
1717512932858651600,2.928651611328125,0.00177764892578125,-0.0018411651253700256,0.0040295422077178955
1717512932868658200,2.938658203125,-0.0029611587524414062,0.0029489025473594666,-0.0007927194237709045
1717512932878664400,2.94866455078125,0.0017957687377929688,0.007658742368221283,0.0038815662264823914
1717512932888671000,2.9586708984375,0.0017671585083007812,0.007479026913642883,-0.0008364096283912659
1717512932898677200,2.96867724609375,0.0017375946044921875,-0.006823323667049408,-0.005579717457294464
1717512932908683800,2.978683837890625,0.0017099380493164062,0.002656199038028717,-0.0007232613861560822
1717512932918690000,2.98868994140625,-0.0030260086059570312,0.011977463960647583,-0.0006581209599971771
1717512932928696600,2.998696533203125,-0.0029764175415039062,0.00712093710899353,-0.0006980784237384796
1717512932938702800,3.008702880859375,0.001781463623046875,0.0023454204201698303,0.004073683172464371
1717512932948709400,3.01870947265625,-0.002956390380859375,-0.00235043466091156,-0.000652071088552475
1717512932958715600,3.028715576171875,-0.00290679931640625,0.0023455992341041565,0.008721679449081421
1717512932968722200,3.03872216796875,0.006558418273925781,-0.002350166440010071,-0.00550030916929245
1717512932978728400,3.048728515625,0.001739501953125,-0.006967626512050629,0.003953695297241211
1717512932988735000,3.05873486328125,0.006420135498046875,-0.0021945536136627197,0.008642967790365219
1717512932998741200,3.0687412109375,-0.0031042098999023438,-0.0021063685417175293,0.003836125135421753
1717512933008747800,3.078747802734375,0.006365776062011719,0.0025861114263534546,-0.0008903481066226959
1717512933018754000,3.088754150390625,-0.0031566619873046875,-0.0022171884775161743,0.008585970848798752
1717512933028760600,3.098760498046875,0.0016050338745117188,-0.006940402090549469,-0.0009307935833930969
1717512933038766800,3.108766845703125,0.0015783309936523438,0.0026445388793945312,0.0038371235132217407
1717512933048773400,3.1187734375,0.001552581787109375,-0.0021596625447273254,-0.0008933991193771362
1717512933058780000,3.12877978515625,0.0015268325805664062,-0.00217515230178833,-0.000940471887588501
1717512933068786200,3.1387861328125,0.0015001296997070312,0.0026215016841888428,-0.0009874962270259857
1717512933078792700,3.148792724609375,0.0014753341674804688,0.0025268346071243286,-0.0010334067046642303
1717512933088799000,3.158799072265625,-0.007966041564941406,-0.0021715164184570312,-0.005684547126293182
1717512933098805500,3.168805419921875,-0.0031232833862304688,-0.0021864771842956543,-0.005551185458898544
1717512933108811800,3.178811767578125,-0.0030698776245117188,-0.002200677990913391,-0.0007109753787517548
1717512933118818300,3.188818359375,0.001689910888671875,0.0025971978902816772,-0.0005567967891693115
1717512933128824600,3.198824462890625,0.011078834533691406,0.007212139666080475,0.008804522454738617
1717512933138831000,3.2088310546875,0.0014781951904296875,-0.002375468611717224,0.003986775875091553
1717512933148837600,3.218837646484375,0.0014543533325195312,0.0023227035999298096,-0.0007511600852012634
1717512933158844000,3.228843994140625,0.0061397552490234375,0.006942577660083771,-0.0007015317678451538
1717512933168850400,3.238850341796875,-0.0033788681030273438,0.0020686686038970947,-0.0006536990404129028
1717512933178857000,3.24885693359375,0.0013856887817382812,0.0020880550146102905,-0.0006071552634239197
1717512933188863500,3.258863525390625,-0.008054733276367188,-0.007413066923618317,-0.0006651245057582855
1717512933198869800,3.268869873046875,-0.00321197509765625,0.002078428864479065,-0.0007236488163471222
1717512933208876300,3.278876220703125,0.0015497207641601562,-0.00731872022151947,-0.0006774067878723145
1717512933218882800,3.2888828125,-0.0031833648681640625,-0.002536386251449585,-0.0006324015557765961
1717512933228889000,3.29888916015625,-0.0031299591064453125,-0.007147349417209625,0.004119988530874252
1717512933238895600,3.3088955078125,-0.0030765533447265625,-0.007075734436511993,-0.0006244964897632599
1717512933248902100,3.318902099609375,0.001682281494140625,-0.002193078398704529,0.004023589193820953
1717512933258908700,3.32890869140625,0.0016536712646484375,0.0026082322001457214,0.003884129226207733
1717512933268915000,3.3389150390625,0.0016269683837890625,0.002518497407436371,0.003850821405649185
1717512933278921500,3.34892138671875,-0.007816314697265625,0.007138855755329132,-0.0008905306458473206
1717512933288928000,3.358927978515625,0.0017309188842773438,-0.0023395195603370667,-0.005553632974624634
1717512933298934500,3.3689345703125,-0.0030059814453125,0.002363048493862152,-0.00543077290058136
1717512933308940800,3.37894091796875,-0.0029544830322265625,-0.002429552376270294,-0.000601690262556076
1717512933318947300,3.388947265625,0.0018033981323242188,0.006983138620853424,0.0040426477789878845
1717512933328953900,3.398953857421875,0.001773834228515625,0.0021139606833457947,-0.005413603037595749
1717512933338960100,3.408960205078125,0.001743316650390625,0.002138189971446991,-0.005295366048812866
1717512933348966700,3.418966552734375,0.0017137527465820312,0.002162829041481018,0.0041355714201927185
1717512933358973200,3.42897314453125,0.00168609619140625,-0.0026251748204231262,-0.0006142556667327881
1717512933368979700,3.438979736328125,0.001659393310546875,0.006793603301048279,-0.0052844807505607605
1717512933378986000,3.448986083984375,0.0016326904296875,0.0019299983978271484,-0.0004599429666996002
1717512933388992500,3.458992431640625,0.0063152313232421875,0.0018560588359832764,-0.0004256889224052429
1717512933398999000,3.4689990234375,0.006211280822753906,-0.0029248595237731934,0.004419591277837753
1717512933409005600,3.479005615234375,0.001399993896484375,0.0017918795347213745,-0.00033553317189216614
1717512933419011800,3.48901171875,0.0060863494873046875,-0.002987585961818695,-0.00030384212732315063
1717512933429018400,3.499018310546875,0.005984306335449219,0.006542801856994629,-0.004980731755495071
1717512933439025000,3.50902490234375,0.0011749267578125,0.0017885491251945496,0.00444287434220314
1717512933449031200,3.51903125,0.0011548995971679688,0.0017196089029312134,-0.0004168674349784851
1717512933459037700,3.52903759765625,-0.0035724639892578125,0.001652158796787262,-0.00038401782512664795
1717512933469044200,3.539044189453125,0.01061248779296875,-0.0031224489212036133,-0.00516379252076149
1717512933479050800,3.54905078125,0.0010194778442382812,-0.00781714916229248,-0.0003436952829360962
1717512933489057000,3.55905712890625,0.0010023117065429688,0.0016925036907196045,-0.005124568939208984
1717512933499063600,3.5690634765625,0.010401725769042969,0.0017296448349952698,-0.0004097782075405121
1717512933509070000,3.579070068359375,0.0008115768432617188,-0.012462131679058075,-0.00048127397894859314
1717512933519076600,3.58907666015625,-0.008620262145996094,0.0019370540976524353,-0.0004493631422519684
1717512933529083000,3.599082763671875,0.0009403228759765625,-0.002840682864189148,0.013707604259252548
1717512933539089400,3.60908935546875,0.0009241104125976562,0.0019823983311653137,-0.005330592393875122
1717512933549096000,3.619095947265625,-0.0037984848022460938,-0.0028982385993003845,-0.005320385098457336
1717512933559102500,3.6291025390625,0.0009737014770507812,-0.0028860867023468018,-0.0006027780473232269
1717512933569108700,3.639108642578125,-0.0037508010864257812,-0.0028730034828186035,-0.0006713196635246277
1717512933579115300,3.649115234375,0.0010204315185546875,-0.00286015123128891,-0.00534500926733017
1717512933589121800,3.659121826171875,0.0010051727294921875,-0.0029499754309654236,0.004186149686574936
1717512933599128000,3.669128173828125,0.000988006591796875,-0.0029350295662879944,0.004037152975797653
1717512933609134600,3.679134521484375,-0.0037384033203125,-0.002816632390022278,-0.0007145144045352936
1717512933619141000,3.68914111328125,0.0010318756103515625,-0.002699322998523712,-0.0006771311163902283
1717512933629147600,3.699147705078125,-0.0036935806274414062,-0.002686724066734314,0.004068486392498016
1717512933639154000,3.70915380859375,0.00107574462890625,-0.0025705918669700623,-0.0006819069385528564
1717512933649160400,3.719160400390625,0.0010576248168945312,0.006858035922050476,-0.0006442256271839142
1717512933659167000,3.7291669921875,0.0010404586791992188,0.002003803849220276,0.004100728780031204
1717512933669173500,3.739173583984375,0.0010232925415039062,-0.007477670907974243,0.004058357328176498
1717512933679179800,3.7491796875,0.0010061264038085938,0.00674225389957428,-0.0007941238582134247
1717512933689186300,3.759186279296875,0.005698204040527344,-0.0028169378638267517,0.003955520689487457
1717512933699192800,3.76919287109375,0.0008945465087890625,0.006618037819862366,0.0038145966827869415
1717512933709199000,3.77919921875,0.005587577819824219,-0.0028349384665489197,-0.0009288787841796875
1717512933719205600,3.78920556640625,0.00078582763671875,0.00660039484500885,0.003822874277830124
1717512933729212200,3.799212158203125,-0.003935813903808594,-0.002955041825771332,-0.0009208545088768005
1717512933739218700,3.80921875,0.0055484771728515625,0.006380364298820496,0.0038321204483509064
1717512933749225000,3.819224853515625,-0.0039615631103515625,0.006246671080589294,-0.005619503557682037
1717512933759231500,3.8292314453125,0.0008134841918945312,-0.0033019930124282837,-0.0007878094911575317
1717512933769238000,3.839238037109375,0.0008001327514648438,0.001435600221157074,-0.0007434971630573273
1717512933779244500,3.84924462890625,0.005494117736816406,-0.003219619393348694,-0.0007006824016571045
1717512933789250800,3.859250732421875,0.00069427490234375,0.010934405028820038,-0.0006583444774150848
1717512933799257300,3.86925732421875,-0.004025459289550781,-0.0033981502056121826,-0.0006154961884021759
1717512933809263900,3.879263916015625,0.0007505416870117188,-0.0033655092120170593,0.004135366529226303
1717512933819270100,3.889270263671875,-0.003970146179199219,-0.00333288311958313,-0.0007133334875106812
1717512933829276700,3.899276611328125,0.005513191223144531,-0.0031974241137504578,0.008850030601024628
1717512933839283200,3.909283203125,0.0007123947143554688,0.001541629433631897,-0.005495540797710419
1717512933849289700,3.919289794921875,0.00540924072265625,0.006202168762683868,0.008752681314945221
1717512933859296000,3.9292958984375,-0.0040988922119140625,-0.0032370761036872864,-0.0007797293365001678
1717512933869302500,3.939302490234375,0.0006780624389648438,-0.003204651176929474,-0.0007363148033618927
1717512933879309000,3.94930908203125,0.005374908447265625,-0.00317276269197464,-0.005505464971065521
1717512933889315600,3.959315673828125,0.000576019287109375,0.0016711875796318054,-0.0006752908229827881
1717512933899321900,3.96932177734375,-0.004141807556152344,-0.0030856728553771973,0.008679397404193878
1717512933909328400,3.979328369140625,0.0006361007690429688,0.0016542747616767883,0.0037520378828048706
1717512933919335000,3.9893349609375,0.0006256103515625,0.0016070082783699036,-0.0009889192879199982
1717512933929341200,3.999341064453125,0.0006151199340820312,-0.003147438168525696,0.00847427174448967
1717512933939347700,4.00934765625,0.0006036758422851562,0.0016980916261672974,-0.0010549724102020264
1717512933949354200,4.019354248046875,0.0005931854248046875,-0.007766306400299072,-0.0010095685720443726
1717512933959360500,4.029360595703125,0.005291938781738281,-0.007655143737792969,-0.001067478209733963
1717512933969367000,4.039366943359375,0.0004949569702148438,0.0018711835145950317,-0.0010225512087345123
1717512933979373300,4.049373291015625,-0.004221916198730469,0.001822143793106079,0.00843951478600502
1717512933989379800,4.0593798828125,0.00055694580078125,-0.002934493124485016,0.008326351642608643
1717512933999386000,4.06938623046875,0.0005474090576171875,0.001805134117603302,-0.0012034811079502106
1717512934009392600,4.079392578125,0.000537872314453125,-0.007659502327442169,0.003552015870809555
1717512934019399000,4.08939892578125,0.0005292892456054688,-0.002840496599674225,-0.005897857248783112
1717512934029405400,4.099405517578125,0.0005197525024414062,-0.007415637373924255,-0.0010647550225257874
1717512934039411700,4.10941162109375,0.0005102157592773438,-0.002497665584087372,-0.001125376671552658
1717512934049418200,4.119418212890625,0.0005016326904296875,-0.0024734511971473694,-0.0010820180177688599
1717512934059424500,4.129424560546875,0.00991058349609375,-0.007157839834690094,-0.00103861466050148
1717512934069431000,4.13943115234375,0.005036354064941406,-0.002347387373447418,-0.0009971968829631805
1717512934079437300,4.149437255859375,0.00024318695068359375,0.0024865418672561646,-0.0010586977005004883
1717512934089443800,4.15944384765625,0.000240325927734375,0.0023246854543685913,-0.0010163411498069763
1717512934099450400,4.169450439453125,0.00023651123046875,0.0022687017917633057,-0.0056834593415260315
1717512934109456600,4.17945654296875,0.000232696533203125,-0.002495028078556061,-0.0009590089321136475
1717512934119463200,4.189463134765625,0.00493621826171875,-0.0023675113916397095,-0.001021895557641983
1717512934129469400,4.199469482421875,0.00014495849609375,0.002363063395023346,-0.005792528390884399
1717512934139476000,4.20947607421875,0.00014209747314453125,0.002306118607521057,-0.0009632483124732971
1717512934149482200,4.219482177734375,0.00014019012451171875,-0.0024589374661445618,-0.005632679909467697
1717512934159488800,4.22948876953125,0.0048465728759765625,0.002376265823841095,-0.005411408841609955
1717512934169495000,4.2394951171875,-0.004651069641113281,0.0023185089230537415,-0.0005894936621189117
1717512934179501600,4.24950146484375,-0.004573822021484375,0.002261638641357422,-0.005265142768621445
1717512934189507800,4.2595078125,0.004920005798339844,-0.0071082934737205505,-0.005051035434007645
1717512934199514400,4.269514404296875,0.00012969970703125,0.0024093762040138245,-0.00023417547345161438
1717512934209520600,4.279520751953125,-0.004581451416015625,-0.007066443562507629,-0.004915878176689148
1717512934219527200,4.289527099609375,0.004912376403808594,-0.006967224180698395,0.004606135189533234
1717512934229533400,4.299533447265625,0.004830360412597656,0.007256045937538147,0.004552118480205536
1717512934239540000,4.3095400390625,0.000041961669921875,0.0024077817797660828,0.009310677647590637
1717512934249546200,4.319546142578125,-0.004666328430175781,0.002245582640171051,-0.00034257397055625916
1717512934259552800,4.329552734375,0.004828453063964844,0.006897866725921631,-0.0003147199749946594
1717512934269559300,4.339559326171875,0.00003910064697265625,-0.0026532411575317383,-0.0049961768090724945
1717512934279565600,4.349565673828125,0.00003719329833984375,-0.0025247186422348022,-0.004891011863946915
1717512934289572000,4.359572021484375,-0.004672050476074219,0.002207331359386444,-0.004890374839305878
1717512934299578600,4.36957861328125,-0.004593849182128906,-0.0025566965341567993,-0.00018144026398658752
1717512934309585200,4.379585205078125,0.0048999786376953125,-0.007241301238536835,-0.00015661120414733887
1717512934319591400,4.38959130859375,0.00010967254638671875,0.002277560532093048,0.004575375467538834
1717512934329598000,4.399597900390625,0.00010776519775390625,0.0022206902503967285,0.0045193396508693695
1717512934339604500,4.4096044921875,0.004815101623535156,-0.002646990120410919,-0.0002446472644805908
1717512934349610800,4.41961083984375,0.004734992980957031,0.006795637309551239,-0.0003241710364818573
1717512934359617300,4.4296171875,-0.00005245208740234375,0.006664082407951355,0.004410512745380402
1717512934369623800,4.439623779296875,-0.00005054473876953125,0.0017232000827789307,0.0043571218848228455
1717512934379630300,4.44963037109375,-0.000049591064453125,0.0016763582825660706,0.004303287714719772
1717512934389636600,4.45963671875,-0.004755973815917969,-0.007889464497566223,-0.00045754387974739075
1717512934399643100,4.46964306640625,0.004741668701171875,-0.007878720760345459,-0.00043181702494621277
1717512934409649700,4.479649658203125,-0.004754066467285156,-0.00786735862493515,-0.00992630422115326
1717512934419656200,4.48965625,0.00003337860107421875,-0.003043830394744873,-0.0004285350441932678
1717512934429662500,4.499662353515625,-0.0046749114990234375,-0.0031119659543037415,-0.0051119402050971985
1717512934439669000,4.5096689453125,0.00011157989501953125,-0.007784299552440643,-0.0004033520817756653
1717512934449675500,4.519675537109375,0.000110626220703125,-0.003063790500164032,0.004328418523073196
1717512934459681800,4.529681884765625,0.000110626220703125,-0.0031292885541915894,0.004376798868179321
1717512934469688300,4.539688232421875,0.00010967254638671875,-0.0031931251287460327,-0.005097292363643646
1717512934479694800,4.54969482421875,0.00010776519775390625,-0.007861241698265076,0.004420910030603409
1717512934489701400,4.559701416015625,-0.004601478576660156,0.006282202899456024,0.004364054650068283
1717512934499707600,4.569707763671875,-0.009232521057128906,0.0013563856482505798,-0.0005048178136348724
1717512934509714200,4.579714111328125,-0.004368782043457031,0.0012230128049850464,0.004125658422708511
1717512934519720700,4.589720703125,-0.009003639221191406,0.005800463259220123,0.004073616117238998
1717512934529727200,4.599727294921875,0.0005645751953125,-0.0038212239742279053,0.004022516310214996
1717512934539733500,4.6097333984375,0.00055694580078125,-0.0038641244173049927,0.008783165365457535
1717512934549740000,4.619739990234375,-0.004158973693847656,-0.008613161742687225,-0.0006612204015254974
1717512934559746600,4.62974658203125,0.0053272247314453125,-0.008471205830574036,-0.0006342530250549316
1717512934569753000,4.639753173828125,0.000530242919921875,-0.003619663417339325,-0.0006086230278015137
1717512934579759400,4.64975927734375,-0.004185676574707031,-0.0036584138870239258,-0.0004790946841239929
1717512934589766000,4.659765869140625,0.00530242919921875,0.0010145530104637146,-0.0004539303481578827
1717512934599772400,4.6697724609375,0.005213737487792969,-0.0037025585770606995,-0.00043025240302085876
1717512934609778700,4.67977880859375,0.005126953125,-0.0036302655935287476,-0.0004070401191711426
1717512934619785200,4.68978515625,-0.004374504089355469,-0.0036601945757865906,-0.005092918872833252
1717512934629791700,4.699791748046875,0.009823799133300781,0.0011244937777519226,0.004424944519996643
1717512934639798300,4.70979833984375,0.004952430725097656,0.0010198578238487244,0.0043668001890182495
1717512934649804500,4.719804443359375,0.0001621246337890625,-0.003789350390434265,0.004412662237882614
1717512934659811000,4.72981103515625,0.00016021728515625,-0.008516117930412292,-0.0002510957419872284
1717512934669817600,4.739817626953125,0.004866600036621094,-0.01316184550523758,-0.004837449640035629
1717512934679824100,4.74982421875,0.0047855377197265625,-0.008207432925701141,-0.000033833086490631104
1717512934689830400,4.759830322265625,0.004706382751464844,0.0012723803520202637,-0.00472693145275116
1717512934699837000,4.7698369140625,-0.004788398742675781,-0.008238375186920166,0.0000737607479095459
1717512934709843500,4.779843505859375,-0.00470733642578125,-0.008171632885932922,0.00008415058255195618
1717512934719849700,4.789849609375,0.00008106231689453125,0.0012104883790016174,-0.000008560717105865479
1717512934729856300,4.799856201171875,0.0047893524169921875,0.001124456524848938,0.004814628511667252
1717512934739862800,4.80986279296875,0.0000019073486328125,0.0010419860482215881,-0.0046724118292331696
1717512934749869300,4.819869384765625,0.0000019073486328125,-0.0037452057003974915,0.004730015993118286
1717512934759875600,4.82987548828125,0.004711151123046875,-0.0037427321076393127,0.000053513795137405396
1717512934769882000,4.839882080078125,0.004633903503417969,0.0009707584977149963,-0.004648167639970779
1717512934779888600,4.849888671875,0.004558563232421875,0.0007954537868499756,0.0001437067985534668
1717512934789895200,4.859895263671875,0.0044841766357421875,0.0006254687905311584,0.004855770617723465
1717512934799901400,4.8699013671875,-0.00029754638671875,-0.008956894278526306,0.00017435476183891296
1717512934809908000,4.879907958984375,-0.005000114440917969,-0.013565726578235626,0.00017528235912322998
1717512934819914500,4.88991455078125,0.004502296447753906,-0.008781813085079193,0.004987023770809174
1717512934829920800,4.899920654296875,-0.00027942657470703125,-0.004076041281223297,0.0001960359513759613
1717512934839927300,4.90992724609375,0.009143829345703125,0.0005537495017051697,0.0002967528998851776
1717512934849933800,4.919933837890625,0.004283905029296875,-0.004205495119094849,0.00039474666118621826
1717512934859940400,4.9299404296875,0.008922576904296875,0.0004302412271499634,0.0004889927804470062
1717512934869946600,4.939946533203125,0.008775711059570312,0.004991300404071808,0.0005816183984279633
1717512934879953200,4.949953125,-0.00078582763671875,-0.00464986264705658,0.005380250513553619
1717512934889959700,4.959959716796875,0.003936767578125,-0.004708573222160339,0.009993329644203186
1717512934899966200,4.96996630859375,-0.0008344650268554688,-0.004866756498813629,0.000403575599193573
1717512934909972500,4.979972412109375,0.0038909912109375,-0.00031159818172454834,0.0004918277263641357
1717512934919979000,4.98997900390625,-0.0008802413940429688,-0.00043467432260513306,0.0052870288491249084
1717512934929985500,4.999985595703125,-0.0008640289306640625,-0.0052619799971580505,-0.004125781357288361
1717512934939991800,5.00999169921875,0.0038604736328125,0.004120208323001862,0.0007438845932483673
1717512934949998300,5.019998291015625,-0.0009098052978515625,-0.005589090287685394,0.0008214600384235382
1717512934960004900,5.0300048828125,-0.00089263916015625,-0.0009040161967277527,0.0056060925126075745
1717512934970011400,5.040011474609375,-0.0008754730224609375,-0.010523304343223572,0.005496706813573837
1717512934980017700,5.050017578125,0.0038509368896484375,-0.005856074392795563,0.0007848702371120453
1717512934990024200,5.060024169921875,-0.0056285858154296875,0.003544829785823822,0.005567699670791626
1717512935000030700,5.07003076171875,0.0038852691650390625,-0.010856792330741882,0.0008546784520149231
1717512935010037200,5.080037353515625,0.00382232666015625,-0.006184414029121399,0.0008244775235652924
1717512935020043500,5.09004345703125,-0.005656242370605469,-0.0062985047698020935,0.000794779509305954
1717512935030050000,5.100050048828125,0.0038576126098632812,-0.0017020925879478455,0.0008688420057296753
1717512935040056600,5.110056640625,0.0037975311279296875,-0.01141134649515152,-0.003766927868127823
1717512935050062800,5.120062744140625,-0.0009717941284179688,-0.0067301467061042786,-0.0036179088056087494
1717512935060069400,5.1300693359375,-0.0009517669677734375,-0.00693841278553009,0.0013415515422821045
1717512935070076000,5.140075927734375,0.0037755966186523438,-0.002331346273422241,-0.003198835998773575
1717512935080082400,5.15008251953125,0.0037164688110351562,-0.0026129335165023804,0.0016503706574440002
1717512935090088700,5.160088623046875,0.0036592483520507812,-0.002992674708366394,0.006419837474822998
1717512935100095200,5.17009521484375,0.0036020278930664062,-0.007971838116645813,0.0064001306891441345
1717512935110101800,5.180101806640625,0.0035457611083984375,-0.012868009507656097,0.006380748003721237
1717512935120108300,5.1901083984375,-0.001216888427734375,-0.003659650683403015,0.006362777203321457
1717512935130114600,5.200114501953125,-0.0011930465698242188,-0.0039191097021102905,0.0016354136168956757
1717512935140121000,5.21012109375,-0.00116729736328125,-0.004380770027637482,0.006300769746303558
1717512935150127600,5.220127685546875,-0.0011434555053710938,-0.004731468856334686,0.0015744306147098541
1717512935160134000,5.2301337890625,0.003589630126953125,-0.009784497320652008,0.006448425352573395
1717512935170140400,5.240140380859375,-0.0011730194091796875,-0.014856994152069092,0.0017196163535118103
1717512935180147000,5.25014697265625,-0.0011491775512695312,-0.010324917733669281,0.00177711620926857
1717512935190153500,5.260153564453125,0.0035829544067382812,-0.005868367850780487,0.0018336474895477295
1717512935200159700,5.27015966796875,-0.001178741455078125,-0.006297960877418518,-0.002716097980737686
1717512935210166300,5.280166259765625,-0.0011529922485351562,-0.0067199841141700745,0.0022282861173152924
1717512935220172800,5.2901728515625,-0.0011281967163085938,-0.011843569576740265,0.011695589870214462
1717512935230179300,5.300179443359375,0.0036058425903320312,-0.012173168361186981,0.006982579827308655
1717512935240185600,5.310185546875,0.0035524368286132812,0.0016285181045532227,0.006953444331884384
1717512935250192100,5.320192138671875,-0.005917549133300781,-0.017759576439857483,-0.002491272985935211
1717512935260198700,5.33019873046875,-0.001102447509765625,-0.013385243713855743,0.0024493373930454254
1717512935270205000,5.340204833984375,-0.0057849884033203125,-0.009083807468414307,0.0025990046560764313
1717512935280211500,5.35021142578125,0.0037364959716796875,-0.009562663733959198,0.002746172249317169
1717512935290218000,5.360218017578125,0.0036840438842773438,-0.014845840632915497,0.007598325610160828
1717512935300224500,5.370224609375,0.008340835571289062,-0.015331938862800598,0.0076621584594249725
1717512935310230800,5.380230712890625,-0.0012063980102539062,-0.020518533885478973,0.00782819464802742
1717512935320237300,5.3902373046875,-0.0011768341064453125,-0.011492475867271423,-0.0014245696365833282
1717512935330243800,5.400243896484375,-0.001148223876953125,-0.021451666951179504,0.0036014914512634277
1717512935340250400,5.41025048828125,0.008298873901367188,-0.02193094789981842,0.008543785661458969
1717512935350256600,5.420256591796875,0.0034627914428710938,-0.0176936537027359,-0.0007220916450023651
1717512935360263200,5.43026318359375,-0.001293182373046875,-0.02294418215751648,0.008897580206394196
1717512935370269700,5.440269775390625,-0.0012607574462890625,-0.018690019845962524,0.009042993187904358
1717512935380276000,5.45027587890625,0.008187294006347656,-0.014506742358207703,0.004374105483293533
1717512935390282500,5.460282470703125,0.0033540725708007812,-0.024622254073619843,0.004594892263412476
1717512935400289000,5.4702890625,-0.0013980865478515625,-0.02044340968132019,0.009520601481199265
1717512935410295600,5.480295654296875,0.003345489501953125,-0.02093908190727234,0.004948224872350693
1717512935420301800,5.4903017578125,0.008011817932128906,-0.016821615397930145,0.005262698978185654
1717512935430308400,5.500308349609375,-0.00152587890625,-0.012772791087627411,0.0008633360266685486
1717512935440315000,5.51031494140625,0.0032215118408203125,-0.01820865273475647,0.010663077235221863
1717512935450321400,5.5203212890625,0.0031805038452148438,-0.018845319747924805,0.0014650896191596985
1717512935460327700,5.53032763671875,0.0031414031982421875,-0.024283260107040405,0.006442911922931671
1717512935470334200,5.540334228515625,-0.006314277648925781,-0.024921976029872894,0.01144104078412056
1717512935480340700,5.5503408203125,-0.006194114685058594,-0.025550030171871185,0.006938658654689789
1717512935490347000,5.560346923828125,-0.006075859069824219,-0.016750410199165344,0.011928502470254898
1717512935500353500,5.570353515625,0.0034589767456054688,-0.027034632861614227,0.0027106553316116333
1717512935510360000,5.580360107421875,0.00812530517578125,-0.027626991271972656,0.00787549838423729
1717512935520366600,5.59036669921875,0.0032939910888671875,-0.028106696903705597,0.012849703431129456
1717512935530372900,5.600372802734375,-0.0014543533325195312,-0.028681680560112,0.008323807269334793
1717512935540379400,5.61037939453125,-0.001415252685546875,-0.029246605932712555,0.00858323648571968
1717512935550386000,5.620385986328125,-0.006085395812988281,-0.020385392010211945,0.013545628637075424
1717512935560392400,5.630392333984375,0.003448486328125,-0.030506260693073273,0.009008102118968964
1717512935570398700,5.640398681640625,-0.001300811767578125,-0.02643592655658722,0.009358063340187073
1717512935580405200,5.6504052734375,-0.0012645721435546875,-0.027038753032684326,0.01430751383304596
1717512935590411800,5.660411865234375,-0.0059356689453125,-0.023025698959827423,0.014467205852270126
1717512935600418000,5.67041796875,-0.0011110305786132812,-0.02849721908569336,0.010017547756433487
1717512935610424600,5.680424560546875,0.003631591796875,-0.03848237544298172,0.014957327395677567
1717512935620431000,5.69043115234375,-0.005828857421875,-0.034278593957424164,0.01039757952094078
1717512935630437600,5.700437744140625,-0.00571441650390625,-0.02543625980615616,0.005913827568292618
1717512935640444000,5.71044384765625,-0.010310173034667969,-0.03557568043470383,0.011025257408618927
1717512935650450400,5.720450439453125,-0.0007047653198242188,-0.03602563589811325,0.016051486134529114
1717512935660457000,5.73045703125,-0.0006761550903320312,-0.036571867763996124,0.011472098529338837
1717512935670463500,5.74046337890625,-0.0006465911865234375,-0.041817061603069305,0.011885542422533035
1717512935680469800,5.7504697265625,-0.00061798095703125,-0.03755763918161392,0.012188829481601715
1717512935690476300,5.760476318359375,-0.0005884170532226562,-0.033472463488578796,0.012487061321735382
1717512935700482800,5.77048291015625,0.00885772705078125,-0.038872577250003815,0.00796845555305481
1717512935710489000,5.780489013671875,-0.0006875991821289062,-0.03476549685001373,0.0084402896463871
1717512935720495600,5.79049560546875,-0.0006580352783203125,-0.04004133492708206,0.018113505095243454
1717512935730502100,5.800502197265625,0.004080772399902344,-0.03591477870941162,0.008895792067050934
1717512935740508700,5.8105087890625,0.008741378784179688,-0.04127419739961624,0.013957500457763672
1717512935750515000,5.820514892578125,-0.0008020401000976562,-0.046544305980205536,0.014226257801055908
1717512935760521500,5.830521484375,-0.0007696151733398438,-0.037497520446777344,0.014490533620119095
1717512935770528000,5.840528076171875,0.003971099853515625,-0.04283057898283005,0.01945900171995163
1717512935780534500,5.850534423828125,-0.0054912567138671875,-0.038657546043395996,0.019636064767837524
1717512935790540800,5.860540771484375,-0.0006704330444335938,-0.03926265239715576,0.015101570636034012
1717512935800547300,5.87054736328125,0.0040721893310546875,-0.03996093571186066,0.015454508364200592
1717512935810553900,5.880553955078125,0.004024505615234375,-0.04996151477098465,0.01109297201037407
1717512935820560100,5.89056005859375,-0.0007305145263671875,-0.040961042046546936,0.020826660096645355
1717512935830566700,5.900566650390625,-0.0006961822509765625,-0.04633963853120804,0.016375582665205002
1717512935840573200,5.9105732421875,-0.00537109375,-0.046919964253902435,0.021312624216079712
1717512935850579700,5.920579833984375,-0.0005502700805664062,-0.0427820086479187,0.016853436827659607
1717512935860586000,5.9305859375,0.008899688720703125,-0.048130787909030914,0.01717565953731537
1717512935870592500,5.940592529296875,0.004065513610839844,-0.043972671031951904,0.017390765249729156
1717512935880599000,5.95059912109375,0.004021644592285156,-0.049300484359264374,0.02241566777229309
1717512935890605600,5.96060546875,-0.0007305145263671875,-0.049831487238407135,0.022646702826023102
1717512935900611800,5.97061181640625,0.004014015197753906,-0.0409364327788353,0.022873882204294205
1717512935910618400,5.980618408203125,-0.0054454803466796875,-0.05573263019323349,0.018491946160793304
1717512935920625000,5.990625,-0.0006237030029296875,-0.04673922061920166,0.028102301061153412
1717512935930631200,6.000631103515625,-0.0052967071533203125,-0.04270695894956589,0.02353150025010109
1717512935940637700,6.0106376953125,-0.00047588348388671875,-0.05286828428506851,0.018932059407234192
1717512935950644200,6.020644287109375,-0.005152702331542969,-0.053339771926403046,0.023929733783006668
1717512935960650800,6.030650634765625,0.009083747863769531,-0.05851197987794876,0.024238768965005875
1717512935970657000,6.040656982421875,0.004248619079589844,-0.05428408831357956,0.01973079890012741
1717512935980663600,6.05066357421875,0.008912086486816406,-0.059543855488300323,0.020006559789180756
1717512935990670000,6.060670166015625,0.0040798187255859375,-0.055298782885074615,0.02017446979880333
1717512936000676600,6.070676513671875,-0.0006704330444335938,-0.046415261924266815,0.020444437861442566
1717512936010683000,6.080682861328125,-0.0006351470947265625,-0.056410931050777435,0.02070990577340126
1717512936020689400,6.090689453125,-0.0005979537963867188,-0.061635278165340424,0.016260754317045212
1717512936030696000,6.100696044921875,0.004146575927734375,-0.06206395477056503,0.016594350337982178
1717512936040702500,6.110702392578125,-0.000606536865234375,-0.052964404225349426,0.026341192424297333
1717512936050708700,6.120708740234375,-0.00057220458984375,-0.053434327244758606,0.017089586704969406
1717512936060715300,6.13071533203125,0.008881568908691406,-0.058708272874355316,0.0269298255443573
1717512936070721800,6.1407216796875,0.0040493011474609375,-0.05908247083425522,0.01766841486096382
1717512936080728000,6.15072802734375,0.004008293151855469,-0.05955304950475693,0.0179801806807518
1717512936090734600,6.160734619140625,0.00396728515625,-0.05530785024166107,0.022993717342615128
1717512936100740900,6.170740966796875,-0.0007781982421875,-0.06536246091127396,0.023318368941545486
1717512936110747400,6.180747314453125,-0.000736236572265625,-0.06112305074930191,0.023639246821403503
1717512936120753700,6.190753662109375,-0.005405426025390625,-0.052142418920993805,0.023954778909683228
1717512936130760200,6.20076025390625,-0.0005779266357421875,-0.05754050612449646,0.024161789566278458
1717512936140766500,6.210766357421875,0.004169464111328125,-0.06284862011671066,0.029177214950323105
1717512936150773000,6.22077294921875,-0.0005807876586914062,-0.058547794818878174,0.024691857397556305
1717512936160779300,6.230779296875,-0.0005435943603515625,-0.06373652070760727,0.029593519866466522
1717512936170785800,6.240785888671875,0.0042018890380859375,-0.06883875280618668,0.029808148741722107
1717512936180792000,6.2507919921875,0.004157066345214844,-0.06433550268411636,0.025207340717315674
1717512936190798600,6.260798583984375,0.004116058349609375,-0.06942709535360336,0.02549675852060318
1717512936200804900,6.270804931640625,0.004076957702636719,-0.06982917338609695,0.03038501739501953
1717512936210811400,6.280811279296875,-0.00067138671875,-0.07012062519788742,0.03058815747499466
1717512936220818000,6.29081787109375,0.004076957702636719,-0.05628141015768051,0.03078790009021759
1717512936230824200,6.30082421875,0.0040378570556640625,-0.06161050498485565,0.030881062150001526
1717512936240830700,6.310830810546875,0.004000663757324219,-0.06214219331741333,0.031075946986675262
1717512936250837000,6.3208369140625,-0.0007448196411132812,-0.06737362593412399,0.026558995246887207
1717512936260843500,6.330843505859375,-0.000701904296875,-0.06780926138162613,0.026929184794425964
1717512936270849800,6.340849853515625,0.0040493011474609375,-0.06823762506246567,0.03189855068922043
1717512936280856300,6.350856201171875,-0.0006961822509765625,-0.0733681246638298,0.027366168797016144
1717512936290862600,6.360862548828125,-0.005362510681152344,-0.06428663432598114,0.032328248023986816
1717512936300869000,6.370869140625,-0.0005340576171875,-0.06948227435350418,0.02779041975736618
1717512936310875400,6.38087548828125,0.008924484252929688,-0.06998597830533981,0.03274542838335037
1717512936320882000,6.3908818359375,-0.0006103515625,-0.07037734240293503,0.028202414512634277
1717512936330888200,6.40088818359375,-0.0005693435668945312,-0.07076288014650345,0.02373337373137474
1717512936340894700,6.410894775390625,-0.0005283355712890625,-0.066433385014534,0.028859272599220276
1717512936350901200,6.4209013671875,0.004220008850097656,-0.07630113512277603,0.024381045252084732
1717512936360907800,6.43090771484375,0.004181861877441406,-0.06727400422096252,0.02928963303565979
1717512936370914000,6.4409140625,0.00414276123046875,-0.07712844759225845,0.03421968221664429
1717512936380920600,6.450920654296875,-0.0006017684936523438,-0.08221331238746643,0.034358978271484375
1717512936390927000,6.460927001953125,-0.0005598068237304688,-0.06827577948570251,0.03449594974517822
1717512936400933400,6.470933349609375,-0.0005197525024414062,-0.06398772448301315,0.03452736884355545
1717512936410940000,6.48093994140625,-0.00518798828125,-0.0786055251955986,0.03466153144836426
1717512936420946400,6.490946533203125,0.009057998657226562,-0.07424855977296829,0.03008485585451126
1717512936430953000,6.500952880859375,0.004231452941894531,-0.0651516243815422,0.020980924367904663
1717512936440959200,6.510959228515625,0.008900642395019531,-0.07033282518386841,0.030654802918434143
1717512936450965800,6.5209658203125,0.0040760040283203125,-0.066010482609272,0.03085353970527649
1717512936460972300,6.53097216796875,0.004038810729980469,-0.0711773931980133,0.035654306411743164
1717512936470978800,6.540978759765625,0.008714675903320312,-0.07636146992444992,0.035872988402843475
1717512936480985000,6.550985107421875,0.0038928985595703125,-0.07664727419614792,0.03127618134021759
1717512936490991600,6.56099169921875,0.0038595199584960938,-0.07221972942352295,0.04088178649544716
1717512936500998100,6.570998046875,-0.0008792877197265625,-0.07738646119832993,0.036201514303684235
1717512936511004400,6.58100439453125,0.008585929870605469,-0.07304985821247101,0.03159923851490021
1717512936521011000,6.591010986328125,0.0037679672241210938,-0.0782020166516304,0.03178410977125168
1717512936531017500,6.601017578125,-0.0009708404541015625,-0.07845718413591385,0.03206733614206314
1717512936541024000,6.61102392578125,0.0037889480590820312,-0.07410275936126709,0.02763725444674492
1717512936551030300,6.6210302734375,0.0037603378295898438,-0.07923809438943863,0.03730352967977524
1717512936561036800,6.631036865234375,0.008441925048828125,-0.07487064599990845,0.0422033853828907
1717512936571043300,6.641043212890625,0.003627777099609375,-0.07528387010097504,0.032794371247291565
1717512936581049900,6.6510498046875,0.0036020278930664062,-0.07569094002246857,0.02824893221259117
1717512936591056100,6.66105615234375,-0.0011339187622070312,-0.08069581538438797,0.037906892597675323
1717512936601062700,6.671062744140625,-0.0010786056518554688,-0.0811159685254097,0.03798484057188034
1717512936611069200,6.681069091796875,-0.001026153564453125,-0.0720086321234703,0.033352889120578766
1717512936621075500,6.691075439453125,-0.005682945251464844,-0.08188747614622116,0.028798144310712814
1717512936631082000,6.70108203125,-0.005550384521484375,-0.08228694647550583,0.0385502353310585
1717512936641088500,6.711088623046875,0.0039920806884765625,-0.08718254417181015,0.03390885889530182
1717512936651095000,6.721094970703125,-0.0007476806640625,-0.08739123493432999,0.03415670245885849
1717512936661101300,6.731101318359375,0.004009246826171875,-0.08288785070180893,0.034297145903110504
1717512936671107800,6.74110791015625,-0.005440711975097656,-0.07364688068628311,0.03443712741136551
1717512936681114400,6.7511142578125,-0.005316734313964844,-0.07868647575378418,0.03928149491548538
1717512936691121000,6.761120849609375,-0.005192756652832031,-0.08374456316232681,0.03462979942560196
1717512936701127200,6.771127197265625,0.004349708557128906,-0.07940515875816345,0.03496886044740677
1717512936711133700,6.7811337890625,0.0043125152587890625,-0.08916059881448746,0.0398043617606163
1717512936721140200,6.79114013671875,0.004277229309082031,-0.08933626860380173,0.03995393216609955
1717512936731146500,6.801146484375,0.008953094482421875,-0.08019430935382843,0.03539431095123291
1717512936741153000,6.811153076171875,0.004132270812988281,-0.08522801846265793,0.030908804386854172
1717512936751159600,6.82115966796875,0.004101753234863281,-0.08557251840829849,0.03591524809598923
1717512936761166000,6.831166015625,0.004071235656738281,-0.08120189607143402,0.04073691368103027
1717512936771172400,6.84117236328125,-0.005377769470214844,-0.07680163532495499,0.04076770693063736
1717512936781179000,6.851178955078125,0.0041656494140625,-0.077183298766613,0.04090125858783722
1717512936791185400,6.861185302734375,-0.000576019287109375,-0.08697501569986343,0.03632590174674988
1717512936801192000,6.87119189453125,0.0041828155517578125,-0.08268426358699799,0.03172354772686958
1717512936811198200,6.8811982421875,0.008860588073730469,-0.08777894824743271,0.03661510348320007
1717512936821204700,6.891204833984375,0.004042625427246094,-0.08808093518018723,0.03671461343765259
1717512936831211300,6.901211181640625,0.0040149688720703125,-0.08366928994655609,0.03691574186086655
1717512936841217500,6.911217529296875,0.003986358642578125,-0.08874679356813431,0.037014126777648926
1717512936851224000,6.92122412109375,-0.000751495361328125,-0.08892937749624252,0.037210263311862946
1717512936861230600,6.931230712890625,0.0040073394775390625,-0.09381750971078873,0.04211173206567764
1717512936871237000,6.941237060546875,0.003978729248046875,-0.08460086584091187,0.04212160408496857
1717512936881243400,6.951243408203125,0.0039520263671875,-0.08966361731290817,0.037525974214076996
1717512936891250000,6.96125,0.0039234161376953125,-0.08983013778924942,0.0330069474875927
1717512936901256400,6.97125634765625,0.0038976669311523438,-0.09009715169668198,0.042689040303230286
1717512936911263000,6.981262939453125,-0.010254859924316406,-0.09035971015691757,0.033272113651037216
1717512936921269200,6.991269287109375,0.0040798187255859375,-0.08590926229953766,0.03813791275024414
1717512936931275800,7.00127587890625,0.00405120849609375,-0.08624158799648285,0.03831729292869568
1717512936941282300,7.0112822265625,-0.005396842956542969,-0.08646510541439056,0.04780763015151024
1717512936951288600,7.02128857421875,0.004149436950683594,-0.09620533138513565,0.03830540180206299
1717512936961295000,7.031295166015625,-0.0005893707275390625,-0.09165743738412857,0.038482002913951874
1717512936971301600,7.041301513671875,-0.0005397796630859375,-0.09189393371343613,0.04807285591959953
1717512936981308200,7.05130810546875,-0.0004901885986328125,-0.08741788566112518,0.03877273201942444
1717512936991314400,7.061314453125,-0.005152702331542969,-0.09233034402132034,0.03894154727458954
1717512937001321000,7.071321044921875,0.0043888092041015625,-0.08774290978908539,0.039109520614147186
1717512937011327500,7.081327392578125,-0.00035381317138671875,-0.0833359882235527,0.03446086123585701
1717512937021334000,7.091333984375,-0.00030803680419921875,-0.09312749654054642,0.04412072151899338
1717512937031340300,7.10134033203125,-0.000263214111328125,-0.09323617070913315,0.034886475652456284
1717512937041346800,7.111346923828125,-0.00021839141845703125,-0.08402907103300095,0.03982865810394287
1717512937051353300,7.121353271484375,0.004532814025878906,-0.08910121023654938,0.044585220515728
1717512937061359600,7.131359619140625,0.009205818176269531,-0.0940888300538063,0.03994857519865036
1717512937071366100,7.1413662109375,-0.0003261566162109375,-0.09418147057294846,0.03538921847939491
1717512937081372700,7.15137255859375,-0.00028133392333984375,-0.08956396579742432,0.045134902000427246
1717512937091379200,7.161379150390625,-0.00023555755615234375,-0.09925244003534317,0.04530096799135208
1717512937101385500,7.171385498046875,0.009225845336914062,-0.09936224669218063,0.040652401745319366
1717512937111392000,7.18139208984375,-0.00030517578125,-0.09476164728403091,0.03608131781220436
1717512937121398500,7.1913984375,-0.00025844573974609375,-0.09023687243461609,0.045817479491233826
1717512937131405000,7.201405029296875,-0.0002155303955078125,-0.09039367735385895,0.04116031527519226
1717512937141411300,7.211411376953125,-0.00017261505126953125,-0.08583924919366837,0.04139263182878494
1717512937151417900,7.22141796875,0.0045795440673828125,-0.09558979421854019,0.04151781648397446
1717512937161424400,7.23142431640625,0.004543304443359375,-0.10046837478876114,0.041642926633358
1717512937171430700,7.2414306640625,-0.00019931793212890625,-0.09113986790180206,0.0417659655213356
1717512937181437200,7.251437255859375,-0.0001544952392578125,-0.09609261900186539,0.041990213096141815
1717512937191443700,7.261443603515625,-0.00011348724365234375,-0.09615177661180496,0.04681405425071716
1717512937201450200,7.2714501953125,-0.0000705718994140625,-0.08689600974321365,0.046848900616168976
1717512937211456500,7.28145654296875,0.0046787261962890625,-0.09181703627109528,0.046986423432826996
1717512937221463000,7.291463134765625,0.009350776672363281,-0.09204986691474915,0.04231182485818863
1717512937231469600,7.301469482421875,0.004528045654296875,-0.09698743373155594,0.047132350504398346
1717512937241476000,7.31147607421875,0.004494667053222656,-0.0924263745546341,0.03313937783241272
1717512937251482400,7.321482421875,-0.00024890899658203125,-0.09254665672779083,0.04292261600494385
1717512937261489000,7.331489013671875,0.0045032501220703125,-0.08795633167028427,0.03831375017762184
1717512937271495400,7.341495361328125,0.0044708251953125,-0.09767072647809982,0.04330418258905411
1717512937281501700,7.351501708984375,0.009146690368652344,-0.09780684858560562,0.04820942133665085
1717512937291508200,7.36150830078125,0.009035110473632812,-0.09794072061777115,0.04351246356964111
1717512937301514800,7.3715146484375,0.004218101501464844,-0.10278097540140152,0.04370565712451935
1717512937311521300,7.381521240234375,0.008898735046386719,-0.09812337905168533,0.05331283435225487
1717512937321527600,7.391527587890625,0.0040836334228515625,-0.09354342520236969,0.04392551630735397
1717512937331534000,7.4015341796875,0.004057884216308594,-0.10316558927297592,0.053529042750597
1717512937341540600,7.41154052734375,-0.0006771087646484375,-0.1032102033495903,0.044034868478775024
1717512937351547100,7.421547119140625,-0.0006246566772460938,-0.09854460507631302,0.039409566670656204
1717512937361553400,7.431553466796875,0.0041351318359375,-0.09395673871040344,0.048987142741680145
1717512937371560000,7.441559814453125,0.004108428955078125,-0.09886253625154495,0.03967397287487984
1717512937381566500,7.45156640625,0.004080772399902344,-0.09426936507225037,0.044538550078868866
1717512937391572700,7.46157275390625,0.004055023193359375,-0.09446223080158234,0.044714681804180145
1717512937401579300,7.471579345703125,-0.005389213562011719,-0.09925634413957596,0.04959852993488312
1717512937411585800,7.481585693359375,0.004158973693847656,-0.09936606138944626,0.04958706349134445
1717512937421592300,7.49159228515625,-0.000579833984375,-0.09937069565057755,0.04486718773841858
1717512937431598600,7.5015986328125,-0.0005292892456054688,-0.0994776263833046,0.04493662714958191
1717512937441605000,7.511605224609375,0.004230499267578125,-0.09958278387784958,0.045108161866664886
1717512937451611600,7.521611572265625,-0.0005064010620117188,-0.09968618303537369,0.04517359286546707
1717512937461618200,7.5316181640625,-0.000457763671875,-0.09968457370996475,0.050049789249897
1717512937471624400,7.54162451171875,-0.000408172607421875,-0.09507764875888824,0.03590705990791321
1717512937481631000,7.551630859375,0.0043506622314453125,-0.10467415302991867,0.045644231140613556
1717512937491637500,7.561637451171875,-0.0050945281982421875,-0.0906701311469078,0.0409921295940876
1717512937501643800,7.571643798828125,-0.00496673583984375,-0.1050477996468544,0.04593800753355026
1717512937511650300,7.581650390625,0.004576683044433594,-0.10506001859903336,0.0413842611014843
1717512937521656800,7.59165673828125,0.009251594543457031,-0.09094623476266861,0.046220339834690094
1717512937531663400,7.601663330078125,0.0044307708740234375,-0.09590208530426025,0.0415586419403553
1717512937541669600,7.611669677734375,-0.000308990478515625,-0.10548394173383713,0.04178650304675102
1717512937551676200,7.62167626953125,-0.0002613067626953125,-0.10548890382051468,0.04190729930996895
1717512937561682700,7.6316826171875,0.00449371337890625,-0.09607747197151184,0.04673261195421219
1717512937571689200,7.641689208984375,-0.0002498626708984375,-0.10084453970193863,0.056188177317380905
1717512937581695500,7.651695556640625,0.0045032501220703125,-0.10553214699029922,0.046651750802993774
1717512937591702000,7.661701904296875,0.013888359069824219,-0.09611909091472626,0.042086128145456314
1717512937601708500,7.67170849609375,0.004281044006347656,-0.09146828204393387,0.05172240734100342
1717512937611714800,7.68171484375,0.00424957275390625,-0.10102079063653946,0.0516776368021965
1717512937621721300,7.691721435546875,-0.00048828125,-0.10099688917398453,0.051736876368522644
1717512937631727900,7.701727783203125,-0.005146026611328125,-0.1010766550898552,0.04708652198314667
1717512937641734400,7.711734375,-0.000308990478515625,-0.10115505009889603,0.05193086713552475
1717512937651740700,7.72174072265625,0.004446983337402344,-0.09181492775678635,0.04717400670051575
1717512937661747200,7.731747314453125,-0.00029277801513671875,-0.10146487504243851,0.0473082959651947
1717512937671753700,7.741753662109375,0.00446319580078125,-0.09682819247245789,0.042628493160009384
1717512937681760300,7.75176025390625,-0.0002765655517578125,-0.10168597847223282,0.04754713922739029
1717512937691766500,7.7617666015625,-0.004937171936035156,-0.0923369899392128,0.04767521470785141
1717512937701773000,7.77177294921875,-0.0001049041748046875,-0.09716632962226868,0.047801144421100616
1717512937711779600,7.781779541015625,0.009357452392578125,-0.0926012322306633,0.052633583545684814
1717512937721785900,7.791785888671875,-0.00017452239990234375,-0.10684337466955185,0.047968290746212006
1717512937731792400,7.80179248046875,0.004580497741699219,-0.09740841388702393,0.043380748480558395
1717512937741799000,7.811798828125,0.0045452117919921875,-0.09273602813482285,0.04357827827334404
1717512937751805400,7.821805419921875,0.004513740539550781,-0.10237058252096176,0.0580015666782856
1717512937761811700,7.831811767578125,0.0044803619384765625,-0.10713686794042587,0.04843287914991379
1717512937771818200,7.841818359375,0.004446983337402344,-0.09759467840194702,0.048544131219387054
1717512937781824800,7.85182470703125,0.004414558410644531,-0.10233641415834427,0.05336421728134155
1717512937791831300,7.861831298828125,-0.000324249267578125,-0.09768517315387726,0.05339536815881729
1717512937801837600,7.871837646484375,0.00443267822265625,-0.09782004356384277,0.053425997495651245
1717512937811844000,7.881843994140625,0.004399299621582031,-0.10255800932645798,0.04864426702260971
1717512937821850600,7.8918505859375,0.004366874694824219,-0.09780073165893555,0.048752009868621826
1717512937831857200,7.901857177734375,0.009042739868164062,-0.09783042967319489,0.053465381264686584
1717512937841863400,7.911863525390625,0.0042266845703125,-0.10267151147127151,0.04878626763820648
1717512937851870000,7.921869873046875,-0.0005092620849609375,-0.10272332280874252,0.05360233783721924
1717512937861876500,7.93187646484375,-0.005166053771972656,-0.09806564450263977,0.048920951783657074
1717512937871882800,7.9418828125,-0.0003299713134765625,-0.09809093177318573,0.04902616888284683
1717512937881889300,7.95188916015625,0.004425048828125,-0.1028243824839592,0.04912962764501572
1717512937891895800,7.961895751953125,0.0043926239013671875,-0.10277032107114792,0.05393996834754944
1717512937901902300,7.97190234375,0.00907135009765625,-0.0981118381023407,0.0492529422044754
1717512937911908600,7.98190869140625,-0.005164146423339844,-0.10284403711557388,0.044646140187978745
1717512937921915100,7.9919150390625,-0.00032520294189453125,-0.1028929278254509,0.049531206488609314
