time,seconds_elapsed,z,y,x
1717513043378405000,0.123405029296875,-0.02129840850830078,0.009954169392585754,0.016275346279144287
1717513043388415200,0.133415283203125,-0.019186019897460938,0.006109744310379028,0.013793136924505234
1717513043398426000,0.143426025390625,-0.013106346130371094,0.011478103697299957,0.011771615594625473
1717513043408437500,0.1534375,-0.012030601501464844,0.016398750245571136,0.014406885951757431
1717513043418449400,0.163449462890625,-0.015542030334472656,0.007794789969921112,0.012519367039203644
1717513043428461600,0.173461669921875,-0.010001182556152344,0.008743934333324432,0.010840464383363724
1717513043438473200,0.18347314453125,-0.004879951477050781,0.014045514166355133,0.009427297860383987
1717513043448479700,0.193479736328125,-0.009079933166503906,0.019176624715328217,0.008047226816415787
1717513043458486300,0.203486328125,-0.01306915283203125,0.015067152678966522,0.011285871267318726
1717513043468492800,0.213492919921875,-0.007836341857910156,0.020184136927127838,0.0008175075054168701
1717513043478499300,0.223499267578125,-0.007439613342285156,0.011584602296352386,0.00007495656609535217
1717513043488506000,0.233506103515625,-0.007082939147949219,0.02164308726787567,-0.009827978909015656
1717513043498512600,0.2435126953125,-0.011321067810058594,0.022156015038490295,-0.0009423866868019104
1717513043508519200,0.253519287109375,-0.0062503814697265625,0.022595636546611786,-0.001704532653093338
1717513043518525700,0.263525634765625,-0.005993843078613281,0.023163340985774994,0.006622925400733948
1717513043528532000,0.273531982421875,-0.010347366333007812,0.023751579225063324,0.010128505527973175
1717513043538538500,0.28353857421875,-0.005352020263671875,0.024457991123199463,0.004417821764945984
1717513043548545000,0.293544921875,-0.005161285400390625,0.02507542073726654,-0.0057713426649570465
1717513043558551600,0.303551513671875,-0.0049839019775390625,0.020994924008846283,-0.006470669060945511
1717513043568558000,0.31355810546875,-0.004820823669433594,0.026425011456012726,-0.007153892889618874
1717513043578564600,0.323564697265625,-0.00004482269287109375,0.027078285813331604,-0.003098003566265106
1717513043588571100,0.333571044921875,-0.013942718505859375,0.023011721670627594,-0.008438581600785255
1717513043598577700,0.34357763671875,-0.0042400360107421875,0.028572984039783478,-0.009083904325962067
1717513043608584200,0.353584228515625,-0.008760452270507812,0.024610944092273712,-0.009718511253595352
1717513043618590700,0.3635908203125,-0.0038652420043945312,0.02543628215789795,-0.010241545736789703
1717513043628597200,0.37359716796875,-0.003765106201171875,0.026362620294094086,-0.0014634616672992706
1717513043638603800,0.383603759765625,-0.0036706924438476562,0.03183490037918091,-0.006790218874812126
1717513043648610300,0.3936103515625,-0.003582000732421875,0.02787010371685028,-0.0120773296803236
1717513043658616800,0.403616943359375,-0.00815582275390625,0.028591342270374298,-0.012570485472679138
1717513043668623000,0.413623046875,-0.003292083740234375,0.02941618114709854,-0.01306120678782463
1717513043678629600,0.423629638671875,-0.0032196044921875,0.03490611910820007,-0.013445410877466202
1717513043688636200,0.43363623046875,0.0015172958374023438,0.030944369733333588,-0.013931211084127426
1717513043698642700,0.443642578125,-0.0032033920288085938,0.0316677987575531,-0.014413878321647644
1717513043708649200,0.453649169921875,-0.003139495849609375,0.03249532729387283,-0.014893626794219017
1717513043718655700,0.46365576171875,0.006275177001953125,0.028644993901252747,-0.006016567349433899
1717513043728662300,0.473662353515625,-0.003238677978515625,0.02957727015018463,-0.011383257806301117
1717513043738668800,0.483668701171875,0.0015039443969726562,0.03986809030175209,-0.007272578775882721
1717513043748675300,0.49367529296875,-0.0032243728637695312,0.04058629646897316,-0.017307784408330917
1717513043758681900,0.503681884765625,-0.0031671524047851562,0.036621879786252975,-0.022553885355591774
1717513043768688400,0.5136884765625,-0.00311279296875,0.04213393107056618,-0.0182208102196455
1717513043778695200,0.523695068359375,0.0016298294067382812,0.04286129027605057,-0.018571307882666588
1717513043788701700,0.53370166015625,-0.007798194885253906,0.04359177127480507,-0.01423049345612526
1717513043798708200,0.543708251953125,-0.0029621124267578125,0.03963083401322365,-0.019575368613004684
1717513043808714800,0.55371484375,-0.0029153823852539062,0.040457624942064285,-0.024722008034586906
1717513043818721300,0.56372119140625,0.001827239990234375,0.04598183557391167,-0.015686513856053352
1717513043828727800,0.573727783203125,0.0017833709716796875,0.03732094168663025,-0.01612034998834133
1717513043838734300,0.583734375,0.0017404556274414062,0.038233011960983276,-0.016757987439632416
1717513043848741000,0.5937412109375,-0.0030031204223632812,0.04854724183678627,-0.017183559015393257
1717513043858747600,0.60374755859375,-0.002960205078125,0.049287207424640656,-0.017710290849208832
1717513043868754200,0.613754150390625,0.0017862319946289062,0.040721070021390915,-0.027645079419016838
1717513043878761000,0.623760986328125,0.0017461776733398438,0.04162367060780525,-0.02329745888710022
1717513043888767500,0.633767578125,0.0017080307006835938,0.05194023624062538,-0.02844669669866562
1717513043898774000,0.64377392578125,0.011088371276855469,0.05266767367720604,-0.028698284178972244
1717513043908780800,0.65378076171875,0.0061855316162109375,0.053486261516809464,-0.01963173970580101
1717513043918787300,0.663787353515625,0.00136566162109375,0.04947938397526741,-0.02003026381134987
1717513043928793900,0.6737939453125,0.006043434143066406,0.05495649203658104,-0.029942583292722702
1717513043938800600,0.683800537109375,0.0012254714965820312,0.05563373118638992,-0.025667162612080574
1717513043948807200,0.69380712890625,0.0011968612670898438,0.051591090857982635,-0.026068352162837982
1717513043958813700,0.703813720703125,-0.0035390853881835938,0.057033032178878784,-0.02635961025953293
1717513043968820500,0.713820556640625,0.001220703125,0.057675667107105255,-0.026749253273010254
1717513043978827000,0.723826904296875,-0.0035161972045898438,0.053598999977111816,-0.02242380753159523
1717513043988833500,0.73383349609375,-0.0034646987915039062,0.054298870265483856,-0.0275876447558403
1717513043998840300,0.74384033203125,0.0060024261474609375,0.05959252268075943,-0.027956390753388405
1717513044008846800,0.753846923828125,0.001186370849609375,0.05548390746116638,-0.02361082099378109
1717513044018853400,0.763853271484375,-0.008257865905761719,0.05615237355232239,-0.028754878789186478
1717513044028860200,0.773860107421875,0.005997657775878906,0.061621516942977905,-0.02439599297940731
1717513044038866700,0.78386669921875,-0.0035257339477539062,0.05747917294502258,-0.020109370350837708
1717513044048873200,0.793873291015625,-0.0034732818603515625,0.06271980702877045,-0.034728579223155975
1717513044058880000,0.8038798828125,0.0059947967529296875,0.06326766312122345,-0.025561533868312836
1717513044068886500,0.813886474609375,0.0011796951293945312,0.05909780412912369,-0.0306730754673481
1717513044078893000,0.82389306640625,0.005862236022949219,0.06912323832511902,-0.026178982108831406
1717513044088899800,0.83389990234375,-0.0036592483520507812,0.06485573947429657,-0.026572007685899734
1717513044098906400,0.84390625,0.0011034011840820312,0.0559508316218853,-0.03637531027197838
1717513044108913000,0.853912841796875,-0.0036296844482421875,0.061320118606090546,-0.031889427453279495
1717513044118919400,0.86391943359375,0.0011339187622070312,0.06659991294145584,-0.032186903059482574
1717513044128926200,0.87392626953125,0.0011091232299804688,0.06697987020015717,-0.0324794203042984
1717513044138932700,0.8839326171875,-0.00362396240234375,0.058039553463459015,-0.02795521914958954
1717513044148939300,0.893939208984375,0.0011396408081054688,0.0679793730378151,-0.028318259865045547
1717513044158945800,0.90394580078125,0.0011148452758789062,0.06843958795070648,-0.03338385000824928
1717513044168952300,0.913952392578125,0.00109100341796875,0.07360073179006577,-0.033656418323516846
1717513044178958800,0.923958740234375,0.00577545166015625,0.06465330719947815,-0.033924445509910583
1717513044188965400,0.93396533203125,-0.0037431716918945312,0.06516898423433304,-0.029479412361979485
1717513044198972000,0.943971923828125,0.0010232925415039062,0.06086421757936478,-0.02981705777347088
1717513044208978700,0.953978759765625,0.0010013580322265625,0.07075697928667068,-0.039566271007061005
1717513044218985200,0.963985107421875,0.000980377197265625,0.07117092609405518,-0.03031861037015915
1717513044228991700,0.97399169921875,0.005667686462402344,0.06686937808990479,-0.025933677330613136
1717513044238998300,0.983998291015625,0.0008602142333984375,0.06263953447341919,-0.031039025634527206
1717513044249004800,0.9940048828125,0.005549430847167969,0.06789738684892654,-0.035956043750047684
1717513044259011300,1.00401123046875,-0.0039653778076171875,0.06835903227329254,-0.03618576377630234
1717513044269017900,1.014017822265625,0.000804901123046875,0.06881297379732132,-0.03641165420413017
1717513044279024600,1.024024658203125,0.0007867813110351562,0.07396794855594635,-0.03663377836346626
1717513044289031200,1.03403125,0.0054779052734375,0.0696198120713234,-0.04156079515814781
1717513044299037700,1.04403759765625,-0.004034996032714844,0.07476136833429337,-0.03217640519142151
1717513044309044200,1.054044189453125,0.0054454803466796875,0.0751086175441742,-0.03236586973071098
1717513044319050800,1.06405078125,0.0006427764892578125,0.07074148952960968,-0.04207262769341469
1717513044329057300,1.074057373046875,0.010045051574707031,0.07115575671195984,-0.03278321772813797
1717513044339063800,1.084063720703125,0.00045680999755859375,0.07166638970375061,-0.03787745162844658
1717513044349070600,1.094070556640625,0.00044536590576171875,0.07677386701107025,-0.04749235883355141
1717513044359077000,1.1040771484375,-0.0042743682861328125,0.07237903028726578,-0.038009390234947205
1717513044369083600,1.114083740234375,0.0005016326904296875,0.07747462391853333,-0.03339305520057678
1717513044379090200,1.124090087890625,0.0004892349243164062,0.07306808978319168,-0.03366550803184509
1717513044389096700,1.1340966796875,0.0051860809326171875,0.07344359904527664,-0.038538772612810135
1717513044399103200,1.144103271484375,0.005095481872558594,0.07381285727024078,-0.03401665389537811
1717513044409109800,1.15410986328125,0.0002994537353515625,0.07407273352146149,-0.02957013249397278
1717513044419116300,1.1641162109375,0.00029087066650390625,0.0838487520813942,-0.039323728531599045
1717513044429123000,1.174123046875,0.004990577697753906,0.06991882622241974,-0.03478875383734703
1717513044439129600,1.184129638671875,0.0001964569091796875,0.07505546510219574,-0.04445516690611839
1717513044449136000,1.19413623046875,0.004899024963378906,0.07539790123701096,-0.039834681898355484
1717513044459142700,1.204142578125,-0.0046024322509765625,0.08044324815273285,-0.03999980539083481
1717513044469149200,1.214149169921875,-0.004528999328613281,0.08069588989019394,-0.04016217216849327
1717513044479155700,1.22415576171875,0.0049610137939453125,0.07623571157455444,-0.035613223910331726
1717513044489162200,1.234162353515625,-0.0045413970947265625,0.0812670886516571,-0.035848699510097504
1717513044499169000,1.2441689453125,0.000240325927734375,0.07669413834810257,-0.04549743980169296
1717513044509175600,1.254175537109375,-0.004474639892578125,0.07230066508054733,-0.04556817188858986
1717513044519182000,1.26418212890625,0.0050144195556640625,0.08210618793964386,-0.040929123759269714
1717513044529188600,1.274188720703125,0.0002193450927734375,0.08243437111377716,-0.036367397755384445
1717513044539195100,1.284195068359375,0.004921913146972656,0.08265382051467896,-0.046007491648197174
1717513044549201700,1.29420166015625,0.009545326232910156,0.08757823705673218,-0.03654928132891655
1717513044559208200,1.304208251953125,-0.009450912475585938,0.08300340175628662,-0.041374512016773224
1717513044569214700,1.314214599609375,0.004830360412597656,0.08311013132333755,-0.04611930996179581
1717513044579221500,1.324221435546875,0.014163970947265625,0.07860974967479706,-0.046179693192243576
1717513044589228000,1.33422802734375,-0.014326095581054688,0.06947582215070724,-0.04153049364686012
1717513044599234600,1.344234619140625,-0.009380340576171875,0.07922521978616714,-0.046375952661037445
1717513044609241000,1.354240966796875,0.03315162658691406,0.09362395107746124,-0.04632879048585892
1717513044619247600,1.36424755859375,-0.01919841766357422,0.07492588460445404,-0.041677117347717285
1717513044629254100,1.374254150390625,-0.014171600341796875,0.08458445966243744,-0.03699968755245209
1717513044639260700,1.3842607421875,0.033148765563964844,0.08466478437185287,-0.04662908986210823
1717513044649267500,1.394267333984375,-0.01920032501220703,0.07542996853590012,-0.041972413659095764
1717513044659274000,1.40427392578125,-0.014173507690429688,0.08518344163894653,-0.03258161246776581
1717513044669280500,1.414280517578125,0.03314685821533203,0.07593994587659836,-0.046890292316675186
1717513044679287000,1.424287109375,-0.0239105224609375,0.08107958734035492,-0.03762392699718475
1717513044689293600,1.43429345703125,-0.014096260070800781,0.09063559770584106,-0.04263775050640106
1717513044699300000,1.444300048828125,0.03322315216064453,0.07659256458282471,-0.04275614023208618
1717513044709306600,1.454306640625,-0.014418601989746094,0.07690946757793427,-0.03345540165901184
1717513044719313400,1.4643134765625,-0.0047626495361328125,0.09134683758020401,-0.038435451686382294
1717513044729320000,1.47431982421875,0.018857955932617188,0.0773952528834343,-0.04322923719882965
1717513044739326500,1.484326416015625,-0.009709358215332031,0.08711596578359604,-0.03873247280716896
1717513044749333000,1.4943330078125,-0.004840850830078125,0.08736070990562439,-0.03881272301077843
1717513044759339500,1.504339599609375,0.014072418212890625,0.08749810606241226,-0.043703485280275345
1717513044769346000,1.514345947265625,-0.009706497192382812,0.08292465656995773,-0.03909555450081825
1717513044779352600,1.5243525390625,-0.00012969970703125,0.08313599228858948,-0.04879346117377281
1717513044789359000,1.534359130859375,0.009287834167480469,0.08344707638025284,-0.04410069063305855
1717513044799366000,1.544365966796875,-0.004994392395019531,0.0883583351969719,-0.03938287869095802
1717513044809372400,1.554372314453125,-0.00020313262939453125,0.08377052843570709,-0.0348469540476799
1717513044819379000,1.56437890625,0.004508018493652344,0.07925919443368912,-0.039803821593523026
1717513044829385500,1.574385498046875,-0.0002765655517578125,0.08894884586334229,-0.04467808082699776
1717513044839392000,1.58439208984375,0.004435539245605469,0.07964269071817398,-0.04465935379266739
1717513044849398500,1.5943984375,-0.00034809112548828125,0.0752001702785492,-0.04013875871896744
1717513044859405000,1.604405029296875,-0.00034332275390625,0.09437476098537445,-0.04500754177570343
1717513044869411800,1.614411865234375,0.013787269592285156,0.08026942610740662,-0.04048103839159012
1717513044879418400,1.62441845703125,-0.00998687744140625,0.08994237333536148,-0.040532272309064865
1717513044889425000,1.6344248046875,-0.005112648010253906,0.0900368019938469,-0.0453944057226181
1717513044899431400,1.644431396484375,0.009097099304199219,0.09012963622808456,-0.036049697548151016
1717513044909438000,1.65443798828125,-0.0004730224609375,0.09503281861543655,-0.04098653793334961
1717513044919444500,1.664444580078125,0.004242897033691406,0.08562521636486053,-0.04573784023523331
1717513044929451000,1.674450927734375,0.008879661560058594,0.08118628710508347,-0.050513215363025665
1717513044939457500,1.68445751953125,-0.005394935607910156,0.08613529056310654,-0.05520901829004288
1717513044949464300,1.69446435546875,0.004111289978027344,0.09100188314914703,-0.04099224507808685
1717513044959470800,1.704470947265625,-0.0006666183471679688,0.08647336065769196,-0.04584673419594765
1717513044969477400,1.714477294921875,-0.0053653717041015625,0.09133433550596237,-0.04120319336652756
1717513044979484000,1.72448388671875,-0.000568389892578125,0.08669707924127579,-0.04124237596988678
1717513044989490400,1.734490478515625,-0.0005598068237304688,0.08684562146663666,-0.04138408228754997
1717513044999497000,1.7444970703125,-0.005260467529296875,0.09170028567314148,-0.041420165449380875
1717513045009503500,1.75450341796875,0.0042438507080078125,0.09166216850280762,-0.05558142811059952
1717513045019510300,1.76451025390625,-0.0005359649658203125,0.09183121472597122,-0.05077555403113365
1717513045029516800,1.774516845703125,-0.005236625671386719,0.08247698843479156,-0.046049777418375015
1717513045039523300,1.7845234375,0.0042667388916015625,0.08740443736314774,-0.046111349016427994
1717513045049529900,1.79452978515625,-0.0005140304565429688,0.08754118531942368,-0.041463300585746765
1717513045059536400,1.804536376953125,-0.005214691162109375,0.0876755565404892,-0.04160124808549881
1717513045069543000,1.81454296875,-0.00042057037353515625,0.08780776709318161,-0.046445559710264206
1717513045079549400,1.824549560546875,-0.005123138427734375,0.0832291841506958,-0.04179193452000618
1717513045089556000,1.834555908203125,0.004378318786621094,0.08343549072742462,-0.046529799699783325
1717513045099562800,1.844562744140625,0.009013175964355469,0.09305555373430252,-0.04177150875329971
1717513045109569300,1.8545693359375,-0.0005540847778320312,0.08838952332735062,-0.05132158845663071
1717513045119575800,1.864575927734375,-0.0005445480346679688,0.09332171827554703,-0.051398567855358124
1717513045129582300,1.874582275390625,0.008881568908691406,0.08865124732255936,-0.046662405133247375
1717513045139588900,1.8845888671875,-0.0053920745849609375,0.08876723796129227,-0.05142238363623619
1717513045149595400,1.894595458984375,-0.0005931854248046875,0.0935898870229721,-0.046685829758644104
1717513045159602000,1.904601806640625,0.008833885192871094,0.08891495317220688,-0.051445405930280685
1717513045169608700,1.914608642578125,-0.005438804626464844,0.09844376146793365,-0.04670847952365875
1717513045179615200,1.924615234375,0.004069328308105469,0.09379120171070099,-0.04675908759236336
1717513045189621800,1.934621826171875,0.004001617431640625,0.08911293745040894,-0.05151745676994324
1717513045199628300,1.944628173828125,-0.0007734298706054688,0.09403311461210251,-0.0467793308198452
1717513045209634800,1.954634765625,-0.0007600784301757812,0.08474549651145935,-0.04682876914739609
1717513045219641300,1.964641357421875,0.0039615631103515625,0.09434378147125244,-0.04216878488659859
1717513045229648000,1.97464794921875,-0.0008134841918945312,0.09446819126605988,-0.047003667801618576
1717513045239654700,1.984654541015625,0.003909111022949219,0.08977865427732468,-0.04244403541088104
1717513045249661200,1.9946611328125,-0.0008649826049804688,0.08045859634876251,-0.05198288336396217
1717513045259667700,2.004667724609375,-0.005558967590332031,0.0947335883975029,-0.042528361082077026
1717513045269674200,2.01467431640625,-0.0007581710815429688,0.09314117580652237,-0.04654355347156525
1717513045279680800,2.0246806640625,-0.0007457733154296875,0.08696963638067245,-0.045783087611198425
1717513045289687300,2.034687255859375,-0.0054416656494140625,0.09011121839284897,-0.04503501579165459
1717513045299693800,2.04469384765625,-0.0006427764892578125,0.08859486877918243,-0.04419601708650589
1717513045309700400,2.054700439453125,-0.005340576171875,0.08710350096225739,-0.03866215795278549
1717513045319707100,2.06470703125,-0.005251884460449219,0.07621952146291733,-0.04274073615670204
1717513045329713700,2.074713623046875,-0.005164146423339844,0.0843510627746582,-0.04204249009490013
1717513045339720200,2.08472021484375,-0.005078315734863281,0.07822105288505554,-0.031938426196575165
1717513045349726700,2.094726806640625,0.0044231414794921875,0.07690157741308212,-0.03623153641819954
1717513045359733200,2.104733154296875,-0.00035953521728515625,0.07560385763645172,-0.040349334478378296
1717513045369739800,2.11473974609375,0.004355430603027344,0.07432761043310165,-0.034877896308898926
1717513045379746300,2.124746337890625,-0.0004253387451171875,0.06836387515068054,-0.039017755538225174
1717513045389753000,2.134753173828125,0.004290580749511719,0.07662518322467804,-0.03837965801358223
1717513045399759600,2.144759521484375,-0.009906768798828125,0.07533150911331177,-0.03775184229016304
1717513045409766100,2.15476611328125,0.004384040832519531,0.0741625726222992,-0.04173947498202324
1717513045419772700,2.164772705078125,-0.00039768218994140625,0.06349258869886398,-0.03634638339281082
1717513045429779200,2.174779296875,-0.005099296569824219,0.06712615489959717,-0.031042849645018578
1717513045439785700,2.18478564453125,0.004403114318847656,0.06599052250385284,-0.03524461016058922
1717513045449792300,2.194792236328125,-0.00037860870361328125,0.06958242505788803,-0.03477040305733681
1717513045459798800,2.204798828125,-0.0003719329833984375,0.05909191444516182,-0.029389014467597008
1717513045469805600,2.2148056640625,0.0043430328369140625,0.06750737130641937,-0.028805982321500778
1717513045479812000,2.22481201171875,-0.005146980285644531,0.0616568848490715,-0.028335366398096085
1717513045489818600,2.234818603515625,-0.0003528594970703125,0.06532126665115356,-0.03258064389228821
1717513045499825200,2.2448251953125,-0.000347137451171875,0.059507474303245544,-0.032046765089035034
1717513045509831700,2.254831787109375,-0.0003414154052734375,0.0632079541683197,-0.026813073083758354
1717513045519838200,2.264838134765625,-0.000335693359375,0.057429760694503784,-0.02637513168156147
1717513045529844700,2.2748447265625,-0.005038261413574219,0.06126853823661804,-0.03065304644405842
1717513045539851500,2.2848515625,-0.0002460479736328125,0.060231763869524,-0.025442048907279968
1717513045549858000,2.294858154296875,0.004467010498046875,0.05450380966067314,-0.025026928633451462
1717513045559864600,2.304864501953125,-0.00031566619873046875,0.05358013138175011,-0.029430612921714783
1717513045569871000,2.31487109375,-0.005019187927246094,0.052672047168016434,-0.028949055820703506
1717513045579878000,2.3248779296875,-0.0002269744873046875,0.05659114569425583,-0.02376691997051239
1717513045589884400,2.334884521484375,-0.0002231597900390625,0.04621604457497597,-0.02808832935988903
1717513045599891000,2.344890869140625,-0.0002193450927734375,0.0595569908618927,-0.027629081159830093
1717513045609897700,2.354897705078125,-0.0002155303955078125,0.053841330111026764,-0.022468850016593933
1717513045619904300,2.364904296875,0.004496574401855469,0.04832429438829422,-0.022103184834122658
1717513045629910800,2.374910888671875,0.004421234130859375,0.04760788381099701,-0.031160756945610046
1717513045639917600,2.38491748046875,-0.00036144256591796875,0.05150889977812767,-0.016627077013254166
1717513045649924000,2.394924072265625,-0.0050640106201171875,0.04592756927013397,-0.025775762274861336
1717513045659930600,2.4049306640625,-0.004979133605957031,0.045147817581892014,-0.025354653596878052
1717513045669937400,2.4149375,-0.009604454040527344,0.04448424279689789,-0.020128559321165085
1717513045679944000,2.42494384765625,0.004681587219238281,0.0484369620680809,-0.02921845018863678
1717513045689950500,2.434950439453125,-0.0001049041748046875,0.042906466871500015,-0.028532950207591057
1717513045699957200,2.444957275390625,-0.004811286926269531,0.037467993795871735,-0.02335663139820099
1717513045709963800,2.4549638671875,-0.00002288818359375,0.04164041578769684,-0.018163185566663742
1717513045719970300,2.46497021484375,0.0046863555908203125,0.04563984274864197,-0.013056192547082901
1717513045729977000,2.47497705078125,0.004608154296875,0.040155183523893356,-0.022263284772634506
1717513045739983600,2.484983642578125,0.0045299530029296875,0.0395735464990139,-0.017191076651215553
1717513045749990100,2.494990234375,-0.00025463104248046875,0.043709930032491684,-0.021620571613311768
1717513045759997000,2.504996826171875,-0.00025081634521484375,0.04296502843499184,-0.021268224343657494
1717513045770003500,2.51500341796875,-0.00024700164794921875,0.04223236069083214,-0.01610931195318699
1717513045780010000,2.525010009765625,0.004466056823730469,0.04151134565472603,-0.020557492971420288
1717513045790016800,2.535016845703125,0.009099960327148438,0.04080212861299515,-0.020325660705566406
1717513045800023300,2.545023193359375,-0.000469207763671875,0.040104325860738754,-0.015182660892605782
1717513045810029800,2.55502978515625,-0.000461578369140625,0.03941773623228073,-0.024251293390989304
1717513045820036600,2.56503662109375,0.013671875,0.03403357043862343,-0.01904316060245037
1717513045830043100,2.575043212890625,-0.0006818771362304688,0.03344731777906418,-0.014025319367647171
1717513045840049700,2.585049560546875,-0.0006704330444335938,0.03757902979850769,-0.018611859530210495
1717513045850056400,2.595056396484375,0.0040493011474609375,0.03693288564682007,-0.013498561456799507
1717513045860063000,2.60506298828125,0.003981590270996094,0.03629712760448456,-0.0179913230240345
1717513045870069800,2.61506982421875,0.003914833068847656,0.035671599209308624,-0.01770102232694626
1717513045880076300,2.625076171875,-0.0008592605590820312,0.0351596474647522,-0.017312079668045044
1717513045890082800,2.635082763671875,-0.0008449554443359375,0.02513524889945984,-0.01232546754181385
1717513045900089300,2.64508935546875,-0.005539894104003906,0.03882084786891937,-0.012130441144108772
1717513045910096000,2.655095947265625,-0.00074005126953125,0.028838157653808594,-0.016648560762405396
1717513045920102400,2.665102294921875,-0.005436897277832031,0.03314740210771561,-0.011674832552671432
1717513045930109000,2.67510888671875,-0.0006380081176757812,0.032572731375694275,-0.0067846812307834625
1717513045940115500,2.685115478515625,-0.0006275177001953125,0.03200741857290268,-0.020914368331432343
1717513045950122200,2.695122314453125,-0.00061798095703125,0.02213738113641739,-0.015871573239564896
1717513045960128800,2.705128662109375,-0.0006074905395507812,0.031162753701210022,-0.01091345027089119
1717513045970135300,2.71513525390625,-0.0005970001220703125,0.030620306730270386,-0.015455741435289383
1717513045980141800,2.725141845703125,-0.00058746337890625,0.034795068204402924,-0.015214979648590088
1717513045990148400,2.7351484375,-0.005286216735839844,0.015460565686225891,-0.014771448448300362
1717513046000155000,2.74515478515625,-0.0004892349243164062,0.029305055737495422,-0.009833673015236855
1717513046010161400,2.755161376953125,-0.00048160552978515625,0.024187520146369934,-0.009687211364507675
1717513046020168200,2.765168212890625,0.004235267639160156,0.02376072108745575,-0.009542832151055336
1717513046030174700,2.7751748046875,-0.0005435943603515625,0.02804926037788391,-0.014110559597611427
1717513046040181200,2.78518115234375,-0.0005340576171875,0.027660861611366272,-0.009082024917006493
1717513046050187800,2.795187744140625,-0.0052337646484375,0.02246694266796112,-0.008949469774961472
1717513046060194300,2.8051943359375,0.0042705535888671875,0.022068053483963013,-0.013528015464544296
1717513046070200800,2.815200927734375,0.004199028015136719,0.02638426423072815,-0.0038014575839042664
1717513046080207400,2.825207275390625,-0.005288124084472656,0.025919534265995026,-0.008570322766900063
1717513046090214000,2.8352138671875,-0.0004911422729492188,0.025565922260284424,-0.013052601367235184
1717513046100220700,2.845220703125,-0.00048160552978515625,0.025011509656906128,-0.017563600093126297
1717513046110227200,2.855227294921875,0.004235267639160156,0.019860826432704926,-0.007873767986893654
1717513046120233700,2.865233642578125,0.004164695739746094,0.024213284254074097,-0.0077619533985853195
1717513046130240300,2.875240234375,0.0040950775146484375,0.01907557249069214,-0.01236148364841938
1717513046140246800,2.885246826171875,0.004027366638183594,0.023337282240390778,-0.007570469751954079
1717513046150253300,2.89525341796875,0.008667945861816406,0.0230257585644722,-0.016881845891475677
1717513046160259800,2.905259765625,-0.0008935928344726562,0.01790747046470642,-0.007306864485144615
1717513046170266600,2.9152666015625,0.0038299560546875,0.017583012580871582,-0.0072052963078022
1717513046180273200,2.925273193359375,0.0037660598754882812,0.026681125164031982,-0.007002010941505432
1717513046190279700,2.93527978515625,0.008411407470703125,0.026210404932498932,-0.0021966062486171722
1717513046200286200,2.9452861328125,-0.005854606628417969,0.01633036881685257,-0.002179691568017006
1717513046210292700,2.955292724609375,-0.0010480880737304688,0.016032293438911438,-0.011476784944534302
1717513046220299300,2.96529931640625,-0.0010309219360351562,0.020447909832000732,-0.016116658225655556
1717513046230305800,2.975305908203125,-0.0010137557983398438,0.020081497728824615,-0.011261794716119766
1717513046240312300,2.985312255859375,-0.01041412353515625,0.01501280814409256,-0.011092936620116234
1717513046250319000,2.995319091796875,-0.0008230209350585938,0.010028854012489319,-0.010926609858870506
1717513046260325600,3.00532568359375,0.00389862060546875,0.014648430049419403,-0.01547216810286045
1717513046270332200,3.015332275390625,-0.0008754730224609375,0.009774431586265564,-0.010523563250899315
1717513046280338700,3.025338623046875,-0.0008611679077148438,0.01429564505815506,-0.005657872185111046
1717513046290345200,3.03534521484375,-0.00084686279296875,0.014033570885658264,-0.010289184749126434
1717513046300351700,3.045351806640625,0.0038766860961914062,0.023090191185474396,-0.010134231299161911
1717513046310358300,3.055358154296875,-0.000896453857421875,0.003847971558570862,-0.0052727460861206055
1717513046320365000,3.065364990234375,-0.000881195068359375,0.013178512454032898,-0.009908929467201233
1717513046330371600,3.07537158203125,-0.0008678436279296875,0.01774870604276657,-0.014467250555753708
1717513046340378000,3.085378173828125,-0.0008535385131835938,0.017534635961055756,-0.0047199297696352005
1717513046350384600,3.095384521484375,0.0038690567016601562,0.01251247525215149,-0.009364360943436623
1717513046360391200,3.10539111328125,-0.000904083251953125,0.00757482647895813,-0.004512673243880272
1717513046370397700,3.115397705078125,-0.0008897781372070312,0.012240409851074219,-0.009158391505479813
1717513046380404200,3.125404296875,0.003833770751953125,0.012120090425014496,-0.004205556586384773
1717513046390411000,3.135410888671875,-0.00093841552734375,0.011898927390575409,0.000562107190489769
1717513046400417500,3.14541748046875,0.0037860870361328125,0.011681817471981049,0.0005423352122306824
1717513046410424000,3.155424072265625,0.0037221908569335938,0.011571906507015228,-0.004185112193226814
1717513046420430600,3.1654306640625,0.0036592483520507812,0.011464111506938934,-0.008833223953843117
1717513046430437000,3.17543701171875,0.008306503295898438,0.011255048215389252,0.0007224380970001221
1717513046440443600,3.185443603515625,-0.0012493133544921875,0.006341025233268738,-0.008611803874373436
1717513046450450200,3.1954501953125,-0.0059375762939453125,0.011029444634914398,-0.00847611017525196
1717513046460456700,3.205456787109375,0.0035772323608398438,0.015639454126358032,-0.008343154564499855
1717513046470463500,3.21546337890625,0.00351715087890625,0.010652422904968262,-0.012919750064611435
1717513046480470000,3.225469970703125,-0.0012502670288085938,0.005748093128204346,-0.008003424853086472
1717513046490476500,3.2354765625,-0.0012302398681640625,0.015154682099819183,-0.003167850896716118
1717513046500483000,3.245483154296875,-0.005919456481933594,0.014987051486968994,-0.00312122143805027
1717513046510489600,3.255489501953125,-0.0011129379272460938,0.01011328399181366,-0.007887028157711029
1717513046520496000,3.26549609375,-0.0010957717895507812,0.010028935968875885,-0.007761357352137566
1717513046530502700,3.275502685546875,-0.0010786056518554688,0.014654122292995453,-0.012346222996711731
1717513046540509400,3.285509521484375,-0.0057697296142578125,0.01920168101787567,-0.00743735209107399
1717513046550516000,3.295515869140625,-0.005673408508300781,0.014152668416500092,-0.0026092827320098877
1717513046560522500,3.3055224609375,0.0038385391235351562,0.009186774492263794,0.0021375082433223724
1717513046570529000,3.315529052734375,-0.0009336471557617188,0.018428653478622437,-0.012029130011796951
1717513046580535600,3.32553564453125,-0.0009174346923828125,0.01809845119714737,-0.0023133549839258194
1717513046590542000,3.3355419921875,-0.0009031295776367188,0.008458927273750305,-0.006988544017076492
1717513046600548600,3.345548583984375,-0.000888824462890625,0.008396320044994354,-0.006877202540636063
1717513046610555100,3.35555517578125,-0.0055828094482421875,0.01293943077325821,-0.0020582079887390137
1717513046620562000,3.36556201171875,-0.000782012939453125,0.008091561496257782,-0.002029057592153549
1717513046630568400,3.375568359375,-0.0054779052734375,0.012740641832351685,-0.006605751812458038
1717513046640575000,3.385574951171875,-0.0006780624389648438,0.007790692150592804,-0.0017922669649124146
1717513046650581500,3.39558154296875,0.004040718078613281,0.003025427460670471,-0.001870911568403244
1717513046660588000,3.405588134765625,-0.000736236572265625,0.003047056496143341,-0.011262211948633194
1717513046670594600,3.415594482421875,-0.00072479248046875,0.007775448262691498,-0.006372146308422089
1717513046680601000,3.42560107421875,-0.000713348388671875,0.0030070170760154724,-0.006271280348300934
1717513046690607900,3.43560791015625,-0.0054111480712890625,0.007734067738056183,-0.006172101944684982
1717513046700614400,3.445614501953125,0.008805274963378906,0.007569268345832825,-0.006074573844671249
1717513046710621000,3.455620849609375,-0.005467414855957031,-0.0020108595490455627,-0.001269124448299408
1717513046720627500,3.46562744140625,-0.005375862121582031,0.016818709671497345,-0.01077369973063469
1717513046730634200,3.47563427734375,0.004130363464355469,0.016602128744125366,-0.0011821351945400238
1717513046740640800,3.485640869140625,-0.0006465911865234375,0.011576436460018158,-0.0011665932834148407
1717513046750647300,3.495647216796875,0.004073143005371094,0.01134192943572998,0.008266013115644455
1717513046760654000,3.505654052734375,-0.005413055419921875,0.011213131248950958,-0.0012937560677528381
1717513046770660600,3.51566064453125,-0.000614166259765625,0.006273515522480011,-0.005985446274280548
1717513046780667100,3.525667236328125,-0.0006055831909179688,0.011038906872272491,-0.005890179425477982
1717513046790674000,3.535673828125,-0.005305290222167969,0.006203413009643555,-0.005899596959352493
1717513046800680400,3.545680419921875,-0.0005092620849609375,0.010864406824111938,-0.0012010112404823303
1717513046810687000,3.55568701171875,0.004206657409667969,0.006029918789863586,-0.005893521010875702
1717513046820693800,3.56569384765625,-0.005282402038574219,0.0060869380831718445,-0.0010903887450695038
1717513046830700300,3.5757001953125,0.004222869873046875,0.006038792431354523,-0.0009723789989948273
1717513046840706800,3.585706787109375,0.004153251647949219,0.010595828294754028,-0.0008560530841350555
1717513046850713600,3.595713623046875,-0.0006246566772460938,0.010367341339588165,-0.000947900116443634
1717513046860720000,3.60572021484375,-0.000614166259765625,0.005536362528800964,-0.000934649258852005
1717513046870726700,3.6157265625,-0.0006036758422851562,0.005493544042110443,-0.0056299008429050446
1717513046880733400,3.6257333984375,0.004115104675292969,0.010159075260162354,-0.010246559977531433
1717513046890740000,3.635739990234375,0.004047393798828125,0.005225099623203278,-0.0006610676646232605
1717513046900746500,3.64574658203125,-0.0007276535034179688,0.009789958596229553,-0.00535980612039566
1717513046910753300,3.655753173828125,-0.00542449951171875,0.004963889718055725,-0.009979844093322754
1717513046920759800,3.665759765625,-0.005333900451660156,0.019051767885684967,-0.0002934485673904419
1717513046930766300,3.675766357421875,-0.0005359649658203125,0.009361013770103455,-0.0001853257417678833
1717513046940773000,3.685773193359375,0.004181861877441406,0.004436284303665161,-0.00970238447189331
1717513046950779600,3.695779541015625,-0.0053043365478515625,0.004301451146602631,-0.009540043771266937
1717513046960786200,3.7057861328125,-0.005215644836425781,0.00427139550447464,0.00003709644079208374
1717513046970793000,3.71579296875,0.008996963500976562,0.01836693286895752,-0.0046708844602108
1717513046980799500,3.725799560546875,-0.0005693435668945312,0.003872022032737732,-0.009300131350755692
1717513046990806000,3.735805908203125,0.0041484832763671875,-0.0008618533611297607,0.00027284398674964905
1717513047000812800,3.745812744140625,-0.005337715148925781,0.008608661592006683,-0.009146951138973236
1717513047010819300,3.7558193359375,-0.0005388259887695312,0.008400239050388336,0.0004248283803462982
1717513047020825900,3.765825927734375,-0.000530242919921875,0.0035896897315979004,-0.004287593066692352
1717513047030832600,3.77583251953125,-0.005230903625488281,0.008275553584098816,0.0003916434943675995
1717513047040839200,3.785839111328125,-0.00043487548828125,0.003465525805950165,-0.004320912063121796
1717513047050845700,3.795845703125,0.004281044006347656,0.003443688154220581,-0.008954811841249466
1717513047060852500,3.8058525390625,0.004210472106933594,0.003318406641483307,-0.004094209522008896
1717513047070859000,3.81585888671875,0.008849143981933594,-0.0014106258749961853,0.0053940266370773315
1717513047080865500,3.825865478515625,0.008699417114257812,0.003459148108959198,-0.004213504493236542
1717513047090872000,3.8358720703125,0.0038461685180664062,0.012852668762207031,0.0005681738257408142
1717513047100878800,3.84587890625,0.0037832260131835938,0.0031515583395957947,-0.004147004336118698
1717513047110885400,3.855885498046875,-0.005696296691894531,0.007737539708614349,0.0006336383521556854
1717513047120892000,3.865891845703125,-0.00089263916015625,0.0029327943921089172,0.00062604621052742
1717513047130898400,3.8758984375,0.0038309097290039062,0.002916403114795685,0.0006186217069625854
1717513047140905000,3.885905029296875,0.0037679672241210938,0.002796366810798645,0.0006103962659835815
1717513047150911500,3.895911376953125,-0.001003265380859375,0.002781681716442108,0.0006033219397068024
1717513047160918000,3.90591796875,0.0037221908569335938,0.0027669742703437805,-0.008820790797472
1717513047170924800,3.9159248046875,-0.005757331848144531,0.007357962429523468,0.0006443150341510773
1717513047180931300,3.925931396484375,-0.0009517669677734375,0.00716361403465271,0.000741083174943924
1717513047190937900,3.935937744140625,-0.000934600830078125,0.006971977651119232,-0.003873240202665329
1717513047200944400,3.9459443359375,-0.000919342041015625,0.002178408205509186,-0.0037009865045547485
1717513047210951000,3.955950927734375,0.0038042068481445312,0.0021728575229644775,0.0010728277266025543
1717513047220957400,3.96595751953125,-0.00567626953125,-0.0025412961840629578,-0.0036500655114650726
1717513047230964000,3.9759638671875,0.0038366317749023438,0.006845548748970032,-0.003585606813430786
1717513047240970800,3.985970703125,-0.0009365081787109375,0.0020537152886390686,-0.008333086967468262
1717513047250977300,3.995977294921875,-0.0009212493896484375,0.0020499303936958313,0.0012266598641872406
1717513047260983800,4.00598388671875,0.0038022994995117188,0.011463366448879242,-0.012915890663862228
1717513047270990300,4.015990234375,-0.00096893310546875,0.0017822086811065674,-0.0032797306776046753
1717513047280996900,4.025996826171875,-0.0009527206420898438,0.011200040578842163,-0.0032213516533374786
1717513047291003400,4.03600341796875,0.0037708282470703125,0.0016264989972114563,0.0014413930475711823
1717513047301010000,4.046010009765625,-0.0010004043579101562,0.0015264376997947693,0.001317828893661499
1717513047311016400,4.056016357421875,-0.00098419189453125,0.006136663258075714,-0.008220847696065903
1717513047321023200,4.066023193359375,0.0037412643432617188,0.006064765155315399,-0.0033714361488819122
1717513047331029800,4.07602978515625,-0.00102996826171875,0.0012855380773544312,-0.007916703820228577
1717513047341036300,4.086036376953125,0.0036954879760742188,-0.008122526109218597,0.0016363784670829773
1717513047351042800,4.096042724609375,0.0036325454711914062,0.006169326603412628,-0.007907349616289139
1717513047361049300,4.10604931640625,-0.00113677978515625,0.006097331643104553,0.0016457177698612213
1717513047371055900,4.116055908203125,-0.001117706298828125,0.0013180747628211975,0.0016224570572376251
1717513047381062400,4.1260625,0.0036096572875976562,0.0013275742530822754,-0.007816534489393234
1717513047391069200,4.136069091796875,0.008256912231445312,0.006045281887054443,0.0016320310533046722
1717513047401075700,4.14607568359375,-0.010715484619140625,0.001267269253730774,-0.003099285066127777
1717513047411082200,4.156082275390625,-0.0011196136474609375,0.0012775883078575134,-0.003043007105588913
1717513047421088800,4.1660888671875,-0.0010995864868164062,0.0011845305562019348,0.0017210841178894043
1717513047431095300,4.17609521484375,0.0036287307739257812,0.0010930821299552917,0.0018006004393100739
1717513047441101800,4.186101806640625,-0.005848884582519531,-0.0036021247506141663,-0.007538251578807831
1717513047451108400,4.1961083984375,-0.0057506561279296875,0.005803465843200684,-0.0026987791061401367
1717513047461115000,4.206114990234375,-0.000946044921875,0.0010293945670127869,-0.00264938548207283
1717513047471121700,4.21612158203125,-0.0009288787841796875,0.0009405910968780518,-0.0025996454060077667
1717513047481128200,4.226128173828125,-0.0009126663208007812,0.005561493337154388,0.002157062292098999
1717513047491134700,4.236134765625,0.0038118362426757812,0.0006885603070259094,0.0022303424775600433
1717513047501141200,4.246141357421875,-0.0009613037109375,0.0007087364792823792,-0.0026125572621822357
1717513047511147800,4.256147705078125,-0.00565338134765625,0.005333952605724335,-0.0025627054274082184
1717513047521154300,4.266154296875,-0.005558967590332031,0.00998503714799881,-0.0025145187973976135
1717513047531160800,4.276160888671875,-0.005466461181640625,-0.004275321960449219,-0.0024659857153892517
1717513047541167600,4.286167724609375,-0.000667572021484375,-0.00417211651802063,-0.0025213807821273804
1717513047551174100,4.296174072265625,-0.005364418029785156,0.0005348101258277893,0.0023394040763378143
1717513047561180700,4.3061806640625,0.004141807556152344,0.0052666738629341125,0.0023074187338352203
1717513047571187200,4.316187255859375,0.004073143005371094,0.005211189389228821,-0.0024325810372829437
1717513047581193700,4.32619384765625,0.00400543212890625,0.00034487247467041016,0.0022203661501407623
1717513047591200300,4.3362001953125,0.0039386749267578125,0.0050802454352378845,0.002190425992012024
1717513047601206800,4.346206787109375,0.0038728713989257812,0.0003192499279975891,0.0021599717438220978
1717513047611213300,4.35621337890625,-0.0009002685546875,0.0050553083419799805,0.006839577108621597
1717513047621220000,4.36622021484375,0.0038242340087890625,0.00019210577011108398,-0.007393259555101395
1717513047631226600,4.3762265625,-0.005657196044921875,0.004930578172206879,0.00205075740814209
1717513047641233200,4.386233154296875,0.0038547515869140625,0.00006978213787078857,-0.007393844425678253
1717513047651239700,4.39623974609375,0.008500099182128906,-0.0000011846423149108887,-0.002555347979068756
1717513047661246200,4.40624609375,-0.0010576248168945312,0.004637874662876129,0.0022023916244506836
1717513047671252700,4.416252685546875,0.0036687850952148438,-0.00011401623487472534,-0.002536498010158539
1717513047681259300,4.42625927734375,-0.005808830261230469,-0.00018103420734405518,-0.0070932768285274506
1717513047691266000,4.43626611328125,-0.001003265380859375,-0.00485190749168396,-0.0022603385150432587
1717513047701272600,4.4462724609375,-0.0009851455688476562,0.009286947548389435,0.0024929046630859375
1717513047711279000,4.456279052734375,0.0037412643432617188,-0.009769976139068604,-0.006856746971607208
1717513047721285600,4.46628564453125,0.0036802291870117188,0.009159937500953674,-0.0020282045006752014
1717513047731292200,4.476292236328125,-0.005797386169433594,-0.00047676265239715576,0.0028229691088199615
1717513047741298700,4.486298583984375,-0.0057010650634765625,-0.00043226778507232666,-0.006636954843997955
1717513047751305500,4.496305419921875,-0.000896453857421875,0.008926302194595337,-0.0017093457281589508
1717513047761312000,4.50631201171875,-0.0008802413940429688,0.004003614187240601,-0.0016759522259235382
1717513047771318500,4.516318603515625,0.0038423538208007812,-0.010150410234928131,-0.0017466247081756592
1717513047781325300,4.5263251953125,-0.010348320007324219,0.0041835978627204895,0.0028922148048877716
1717513047791331800,4.536331787109375,-0.0007581710815429688,-0.005366981029510498,-0.001860450953245163
1717513047801338400,4.54633837890625,0.003964424133300781,-0.0006320253014564514,0.007591623812913895
1717513047811345200,4.55634521484375,-0.0008106231689453125,-0.000580713152885437,0.0028633736073970795
1717513047821351700,4.5663515625,0.0039119720458984375,0.004075683653354645,-0.006598200649023056
1717513047831358200,4.576358154296875,-0.00086212158203125,0.0040493980050086975,-0.0017775706946849823
1717513047841365000,4.586364990234375,-0.005555152893066406,-0.0007876679301261902,-0.0017461739480495453
1717513047851371500,4.59637158203125,0.003955841064453125,0.0038741230964660645,-0.001714598387479782
1717513047861378000,4.6063779296875,0.0038900375366210938,-0.0008550286293029785,0.003024723380804062
1717513047871384800,4.616384765625,-0.00559234619140625,-0.005607910454273224,0.0028728656470775604
1717513047881391400,4.626391357421875,-0.000789642333984375,0.0038449466228485107,-0.0018821246922016144
1717513047891398100,4.636398193359375,-0.0007762908935546875,0.0038270875811576843,0.002962253987789154
1717513047901404700,4.64640478515625,-0.005471229553222656,-0.0010015666484832764,0.0029136762022972107
1717513047911411200,4.6564111328125,0.0040378570556640625,0.008376844227313995,0.0029687918722629547
1717513047921418000,4.66641796875,-0.0007371902465820312,-0.0012350380420684814,-0.006498891860246658
1717513047931424500,4.676424560546875,0.0039844512939453125,-0.001268729567527771,0.0031284354627132416
1717513047941431000,4.68643115234375,0.003918647766113281,-0.0013006702065467834,-0.0016331933438777924
1717513047951437800,4.696437744140625,-0.0008544921875,-0.001331627368927002,-0.006213687360286713
1717513047961444400,4.7064443359375,0.008578300476074219,0.00805598497390747,0.003304179757833481
1717513047971451000,4.716450927734375,-0.0009832382202148438,0.0032654553651809692,-0.0014629028737545013
1717513047981457700,4.726457763671875,-0.0009660720825195312,-0.0015472620725631714,-0.0013381801545619965
1717513047991464200,4.736464111328125,-0.0009479522705078125,-0.006382167339324951,-0.0013193339109420776
1717513048001470700,4.746470703125,-0.005641937255859375,-0.0015119165182113647,-0.0013013370335102081
1717513048011477500,4.7564775390625,-0.0008373260498046875,0.003071509301662445,-0.001180894672870636
1717513048021484000,4.766484130859375,0.0038852691650390625,-0.006443105638027191,-0.005874849855899811
1717513048031490600,4.776490478515625,0.0038213729858398438,0.0030361413955688477,-0.0009706579148769379
1717513048041497300,4.786497314453125,0.003757476806640625,0.007649734616279602,-0.0009606406092643738
1717513048051503900,4.79650390625,-0.0010128021240234375,0.0027701854705810547,-0.000848136842250824
1717513048061510400,4.806510498046875,-0.0009946823120117188,0.002681553363800049,-0.0007381662726402283
1717513048071517200,4.81651708984375,0.0037317276000976562,-0.006822176277637482,-0.005340348929166794
1717513048081523700,4.826523681640625,0.00366973876953125,-0.0020403116941452026,0.004156973212957382
1717513048091530200,4.8365302734375,-0.0010976791381835938,0.002559669315814972,0.004181288182735443
1717513048101537000,4.846537109375,-0.001079559326171875,0.007187359035015106,-0.005316104739904404
1717513048111543600,4.85654345703125,-0.00106048583984375,-0.002386726438999176,-0.00042703747749328613
1717513048121550000,4.866550048828125,-0.0057506561279296875,0.007033944129943848,-0.005038615316152573
1717513048131556900,4.876556884765625,0.0037641525268554688,-0.0026388391852378845,0.004551440477371216
1717513048141563400,4.8865634765625,-0.0010061264038085938,-0.0026286765933036804,-0.00014521926641464233
1717513048151570000,4.89656982421875,-0.000988006591796875,0.002091623842716217,0.004653457552194595
1717513048161576400,4.906576416015625,-0.0009708404541015625,-0.0027858614921569824,0.0045590586960315704
1717513048171583000,4.9165830078125,0.0037546157836914062,-0.002768777310848236,-0.00014038756489753723
1717513048181589800,4.92658984375,0.003692626953125,-0.012167729437351227,-0.00005424767732620239
1717513048191596300,4.93659619140625,0.0036325454711914062,0.006739363074302673,0.004736635833978653
1717513048201602800,4.946602783203125,0.0035724639892578125,0.0018935129046440125,-0.0046785324811935425
1717513048211609300,4.956609375,-0.001194000244140625,-0.002973295748233795,0.00018753111362457275
1717513048221615900,4.966615966796875,0.003536224365234375,-0.003049209713935852,0.0002613365650177002
1717513048231622400,4.976622314453125,-0.0012302398681640625,-0.0030185654759407043,0.00033336132764816284
1717513048241629000,4.98662890625,0.0034999847412109375,-0.0029867514967918396,0.009819753468036652
1717513048251635500,4.996635498046875,0.008152008056640625,-0.003057442605495453,0.0003109388053417206
1717513048261642200,5.006642333984375,0.0033082962036132812,0.001687459647655487,0.005190003663301468
1717513048271648800,5.016648681640625,-0.001453399658203125,0.0015423670411109924,0.0004634261131286621
1717513048281655300,5.0266552734375,0.0032796859741210938,0.006213754415512085,0.0005234070122241974
1717513048291661800,5.036661865234375,-0.001483917236328125,-0.0033167079091072083,0.0005804821848869324
1717513048301668400,5.04666845703125,-0.0014591217041015625,-0.007977917790412903,0.005239982157945633
1717513048311675000,5.0566748046875,0.007982254028320312,0.006274759769439697,0.0005059130489826202
1717513048321681400,5.066681396484375,-0.006275177001953125,-0.008063159883022308,0.005265943706035614
1717513048331688200,5.076688232421875,-0.0014629364013671875,0.0015892237424850464,-0.004181165248155594
1717513048341694700,5.08669482421875,0.0032701492309570312,-0.003146544098854065,0.005361542105674744
1717513048351701200,5.096701171875,-0.0014925003051757812,0.0016151666641235352,0.00993027538061142
1717513048361707800,5.106707763671875,-0.006175041198730469,0.00148734450340271,0.005106911063194275
1717513048371714300,5.11671435546875,0.0033464431762695312,0.0013633444905281067,0.0050705112516880035
1717513048381720800,5.126720947265625,-0.0014181137084960938,0.0013463273644447327,-0.00438448041677475
1717513048391727400,5.136727294921875,-0.0013942718505859375,0.0013312175869941711,0.0004419200122356415
1717513048401734000,5.14673388671875,-0.010787010192871094,0.001317933201789856,0.005289200693368912
1717513048411740700,5.15674072265625,0.0035190582275390625,-0.0035054683685302734,0.005241885781288147
1717513048421747200,5.166747314453125,0.003459930419921875,-0.0034351274371147156,0.005193430930376053
1717513048431753700,5.176753662109375,0.0034027099609375,0.0013440847396850586,0.005143873393535614
1717513048441760300,5.18676025390625,-0.0013628005981445312,0.0013368353247642517,0.0003856867551803589
1717513048451766800,5.196766845703125,-0.001338958740234375,-0.0034808367490768433,0.0004135407507419586
1717513048461773300,5.206773193359375,0.0033931732177734375,-0.00821693241596222,0.009856287389993668
1717513048471779800,5.21677978515625,-0.0013723373413085938,-0.003352425992488861,0.0004087314009666443
1717513048481786600,5.22678662109375,-0.0013484954833984375,-0.0033800899982452393,0.0004297494888305664
1717513048491793200,5.236793212890625,0.0033826828002929688,0.0014056861400604248,0.005157269537448883
1717513048501799700,5.246799560546875,0.008035659790039062,-0.008116297423839569,0.005095683038234711
1717513048511806200,5.25680615234375,-0.0062236785888671875,0.0014590844511985779,0.005136717110872269
1717513048521812700,5.266812744140625,0.0032978057861328125,0.0013553798198699951,-0.004241775721311569
1717513048531819300,5.2768193359375,0.0032415390014648438,-0.0033510178327560425,0.005162280052900314
1717513048541825800,5.28682568359375,0.0031881332397460938,-0.003372371196746826,0.0003865472972393036
1717513048551832300,5.296832275390625,-0.0062808990478515625,0.006024271249771118,0.00039644911885261536
1717513048561839000,5.306839111328125,-0.0014667510986328125,-0.003569275140762329,-0.004303891211748123
1717513048571845600,5.316845703125,-0.006150245666503906,-0.003585316240787506,-0.00421978160738945
1717513048581852200,5.32685205078125,-0.001338958740234375,0.0011087357997894287,0.0004678890109062195
1717513048591858700,5.336858642578125,-0.0013170242309570312,0.001120060682296753,0.005179356783628464
1717513048601865200,5.346865234375,0.0034132003784179688,-0.00357615202665329,0.00039484724402427673
1717513048611871700,5.356871826171875,0.00335693359375,0.0011202991008758545,0.0051049962639808655
1717513048621878300,5.366878173828125,0.0033016204833984375,-0.0036778301000595093,0.00031823664903640747
1717513048631885000,5.376885009765625,0.003246307373046875,-0.008291438221931458,0.005028333514928818
1717513048641891600,5.3868916015625,-0.0015163421630859375,0.0012981146574020386,0.0049491748213768005
1717513048651898000,5.396898193359375,-0.0014905929565429688,-0.003500327467918396,0.004870269447565079
1717513048661904600,5.406904541015625,0.00324249267578125,0.001302570104598999,0.00008307397365570068
1717513048671911200,5.4169111328125,-0.00151824951171875,0.001111157238483429,0.00008330866694450378
1717513048681917700,5.426917724609375,0.007924079895019531,0.0011303871870040894,-0.004522677510976791
1717513048691924200,5.43692431640625,-0.0063323974609375,-0.0036612600088119507,0.00026221200823783875
1717513048701931000,5.446930908203125,-0.0015172958374023438,0.0010446906089782715,-0.004348419606685638
1717513048711937500,5.4569375,0.007925987243652344,0.0009645745158195496,0.005139525979757309
1717513048721944000,5.466944091796875,-0.0016222000122070312,-0.003821827471256256,0.0050513856112957
1717513048731950600,5.47695068359375,-0.00159454345703125,0.005598336458206177,0.0003586672246456146
1717513048741957400,5.486957275390625,-0.001567840576171875,0.000736728310585022,0.004954122006893158
1717513048751964000,5.4969638671875,-0.0015411376953125,0.0006657913327217102,0.00026168301701545715
1717513048761970400,5.506970458984375,0.0031938552856445312,0.0005971193313598633,-0.00445643812417984
1717513048771977200,5.516977294921875,0.012559890747070312,0.005136020481586456,0.0050292834639549255
1717513048781983700,5.526983642578125,-0.006484031677246094,0.00038935989141464233,0.005041409283876419
1717513048791990300,5.536990234375,0.0030422210693359375,-0.009088471531867981,0.0002419985830783844
1717513048801997000,5.5469970703125,0.0029926300048828125,0.00042724609375,0.004939291626214981
1717513048812003600,5.557003662109375,-0.0017652511596679688,0.005076996982097626,0.004849229007959366
1717513048822010000,5.567010009765625,0.0029735565185546875,0.004941895604133606,0.004863496869802475
1717513048832017000,5.577016845703125,0.0029239654541015625,0.00010169297456741333,0.004670541733503342
1717513048842023400,5.5870234375,-0.0018329620361328125,-0.004656992852687836,-0.0002292729914188385
1717513048852030000,5.597030029296875,0.0029058456420898438,-0.004626110196113586,0.004473697394132614
1717513048862036700,5.60703662109375,0.0075664520263671875,-0.004594460129737854,-0.00031929463148117065
1717513048872043300,5.617043212890625,-0.0019769668579101562,-0.009271033108234406,-0.0003252103924751282
1717513048882049800,5.6270498046875,-0.001941680908203125,-0.004554435610771179,-0.00022809207439422607
1717513048892056600,5.637056640625,0.007508277893066406,-0.004520028829574585,-0.00023515522480010986
1717513048902063000,5.64706298828125,-0.006743431091308594,0.00032667070627212524,0.004465129226446152
1717513048912069600,5.657069580078125,0.0027856826782226562,-0.004426479339599609,-0.005039036273956299
1717513048922076400,5.667076416015625,0.00273895263671875,-0.009098589420318604,0.009158927947282791
1717513048932083000,5.6770830078125,0.0026941299438476562,0.0003307238221168518,0.008889853954315186
1717513048942089500,5.68708935546875,-0.0020599365234375,0.0003937035799026489,0.004019688814878464
1717513048952096300,5.69709619140625,0.0026826858520507812,-0.0043543800711631775,0.003940120339393616
1717513048962102800,5.707102783203125,0.0026388168334960938,0.005103930830955505,-0.0007436089217662811
1717513048972109300,5.717109375,0.007305145263671875,-0.009240590035915375,-0.0006418637931346893
1717513048982116000,5.7271162109375,0.002475738525390625,-0.009115107357501984,-0.0005408860743045807
1717513048992122600,5.73712255859375,-0.0022745132446289062,-0.008990250527858734,-0.0005449801683425903
1717513049002129200,5.747129150390625,0.0071811676025390625,-0.013678282499313354,0.004158440977334976
1717513049012136000,5.757135986328125,0.007061958312988281,0.005256667733192444,0.004075821489095688
1717513049022142500,5.767142578125,-0.007180213928222656,0.000334128737449646,0.003993455320596695
1717513049032149000,5.77714892578125,-0.0023508071899414062,0.00020372867584228516,-0.0007962062954902649
1717513049042155800,5.78715576171875,0.007107734680175781,0.00007701665163040161,-0.005402807146310806
1717513049052162300,5.797162353515625,0.006991386413574219,-0.00004563480615615845,-0.0005144216120243073
1717513049062168800,5.8071689453125,-0.007248878479003906,-0.004873238503932953,-0.00041614845395088196
1717513049072175600,5.817175537109375,0.0022897720336914062,-0.00961911678314209,0.004284698516130447
1717513049082182100,5.82718212890625,-0.0024557113647460938,0.004550211131572723,-0.009927261620759964
1717513049092189000,5.83718896484375,0.007002830505371094,-0.004954569041728973,-0.004964776337146759
1717513049102195500,5.847195556640625,-0.0025300979614257812,-0.00969378650188446,0.00452018529176712
1717513049112202000,5.857201904296875,0.0022220611572265625,-0.00022635608911514282,-0.0002789013087749481
1717513049122208800,5.867208740234375,-0.007231712341308594,-0.009645894169807434,-0.004894930869340897
1717513049132215300,5.87721533203125,0.0023069381713867188,-0.009592555463314056,0.004588223993778229
1717513049142221800,5.887221923828125,-0.002437591552734375,-0.00022418051958084106,0.004599116742610931
1717513049152228600,5.897228515625,0.0023126602172851562,-0.0003233775496482849,-0.0002013370394706726
1717513049162235100,5.907235107421875,-0.00243377685546875,-0.00041878223419189453,-0.00021354854106903076
1717513049172241700,5.91724169921875,0.0023183822631835938,-0.010030850768089294,-0.00012268126010894775
1717513049182248200,5.927248291015625,0.006989479064941406,0.004165448248386383,-0.0002413913607597351
1717513049192254700,5.937254638671875,-0.0025415420532226562,-0.005519144237041473,0.004555497318506241
1717513049202261500,5.947261474609375,-0.002498626708984375,-0.00551895797252655,0.004461079835891724
1717513049212268000,5.95726806640625,-0.0024557113647460938,-0.005516178905963898,-0.0003409348428249359
1717513049222274600,5.967274658203125,0.0022945404052734375,-0.005511157214641571,0.004352640360593796
1717513049232281000,5.977281005859375,0.00225830078125,-0.005605936050415039,-0.0050530023872852325
1717513049242287600,5.98728759765625,-0.00719451904296875,-0.0009880587458610535,-0.0049896277487277985
1717513049252294100,5.997294189453125,0.007052421569824219,0.0036591067910194397,-0.00021930411458015442
1717513049262300700,6.00730078125,-0.0024814605712890625,0.0035232827067375183,-0.000134393572807312
1717513049272307500,6.017307373046875,0.0022706985473632812,-0.0061276257038116455,0.0045538246631622314
1717513049282314000,6.02731396484375,0.0069427490234375,-0.006094008684158325,-0.004962485283613205
1717513049292320500,6.037320556640625,0.0021200180053710938,-0.0014523938298225403,0.004616882652044296
1717513049302327000,6.0473271484375,0.006794929504394531,-0.0015967413783073425,-0.00008920207619667053
1717513049312333600,6.05733349609375,0.0019750595092773438,-0.0064472779631614685,0.004597064107656479
1717513049322340000,6.067340087890625,0.0019435882568359375,-0.0017997771501541138,-0.00021197646856307983
1717513049332346600,6.0773466796875,0.0019130706787109375,-0.0019383355975151062,0.00928821787238121
1717513049342353400,6.087353515625,-0.0028257369995117188,-0.006783179938793182,0.00440099835395813
1717513049352360000,6.09735986328125,0.006640434265136719,-0.002130076289176941,-0.00030148401856422424
1717513049362366500,6.107366455078125,-0.0028858184814453125,-0.006971724331378937,0.009096909314393997
1717513049372373000,6.117373046875,0.001873016357421875,-0.0070240795612335205,0.004316162317991257
1717513049382379500,6.127379638671875,-0.002864837646484375,-0.007075563073158264,-0.009905390441417694
1717513049392386000,6.137385986328125,-0.00281524658203125,-0.007126189768314362,-0.005055531859397888
1717513049402392600,6.147392578125,0.001941680908203125,-0.0024673715233802795,0.009233981370925903
1717513049412399000,6.157399169921875,0.0019102096557617188,-0.007303401827812195,0.004244372248649597
1717513049422406000,6.167406005859375,0.001880645751953125,0.002066969871520996,-0.0005587935447692871
1717513049432412400,6.177412353515625,-0.002857208251953125,-0.007553227245807648,-0.0005733110010623932
1717513049442419000,6.1874189453125,0.006609916687011719,-0.0075958892703056335,-0.0005875863134860992
1717513049452425500,6.197425537109375,-0.0076236724853515625,-0.007741138339042664,0.00891885906457901
1717513049462432000,6.207431884765625,0.001922607421875,-0.0030724629759788513,-0.0005686096847057343
1717513049472438500,6.2174384765625,-0.00281524658203125,-0.008001692593097687,0.004228923469781876
1717513049482445000,6.227445068359375,0.001941680908203125,-0.003328286111354828,-0.0005739852786064148
1717513049492451800,6.237451904296875,0.001911163330078125,-0.012858942151069641,0.004119262099266052
1717513049502458400,6.247458251953125,-0.0028276443481445312,-0.0033959895372390747,-0.0005785338580608368
1717513049512465000,6.25746484375,0.006638526916503906,-0.012925133109092712,-0.0005927234888076782
1717513049522471400,6.267471435546875,-0.002887725830078125,-0.008169285953044891,0.004103008657693863
1717513049532478000,6.27747802734375,0.0018711090087890625,-0.008201681077480316,-0.005303114652633667
1717513049542484500,6.287484375,0.0018415451049804688,-0.0035253316164016724,-0.0004277639091014862
1717513049552491000,6.297490966796875,0.0018129348754882812,-0.003635130822658539,-0.0003411807119846344
1717513049562497500,6.30749755859375,0.0017843246459960938,-0.003743104636669159,0.004349272698163986
1717513049572504300,6.31750439453125,-0.00295257568359375,-0.00855787843465805,-0.00045564770698547363
1717513049582510800,6.3275107421875,-0.0029010772705078125,-0.0038752034306526184,-0.0003685988485813141
1717513049592517400,6.337517333984375,-0.002849578857421875,-0.008791051805019379,0.009134195744991302
1717513049602524000,6.34752392578125,-0.00279998779296875,0.0006037205457687378,0.004351720213890076
1717513049612530400,6.357530517578125,-0.0027513504028320312,-0.008992090821266174,0.004358641803264618
1717513049622537000,6.367536865234375,0.006714820861816406,0.0003027394413948059,-0.00034424662590026855
1717513049632543500,6.37754345703125,0.0018978118896484375,-0.0046827420592308044,-0.00015576928853988647
1717513049642550300,6.38755029296875,0.00186920166015625,-0.004876933991909027,-0.00007482990622520447
1717513049652556800,6.397556884765625,0.0018405914306640625,-0.009776093065738678,0.004714462906122208
1717513049662563300,6.407563232421875,0.0018138885498046875,-0.00988500565290451,0.004818622022867203
1717513049672569900,6.41756982421875,0.0017862319946289062,-0.00528351217508316,-0.004599437117576599
1717513049682576400,6.427576416015625,0.0017595291137695312,-0.005467310547828674,0.004973862320184708
1717513049692583000,6.4375830078125,0.0017328262329101562,-0.010356642305850983,0.0049704089760780334
1717513049702589700,6.447589599609375,0.006415367126464844,-0.0010386854410171509,0.0002584122121334076
1717513049712596200,6.45759619140625,0.0016031265258789062,-0.015419021248817444,0.0049388594925403595
1717513049722602800,6.467602783203125,-0.0031290054321289062,-0.0060167089104652405,0.00022739171981811523
1717513049732609500,6.477609619140625,-0.0030727386474609375,-0.006291575729846954,0.00019975751638412476
1717513049742616000,6.487615966796875,0.001689910888671875,-0.001749970018863678,0.004984468221664429
1717513049752622600,6.49762255859375,-0.00304412841796875,-0.011409856379032135,0.00498083233833313
1717513049762629400,6.50762939453125,0.0017194747924804688,-0.00688663125038147,0.0002675391733646393
1717513049772636000,6.517635986328125,-0.0030126571655273438,-0.007146991789340973,-0.004366077482700348
1717513049782642400,6.527642333984375,-0.0029573440551757812,-0.0074034184217453,0.0004935935139656067
1717513049792649200,6.537649169921875,0.0018053054809570312,-0.0076551660895347595,0.0005647987127304077
1717513049802655700,6.54765576171875,-0.0029287338256835938,-0.0031941235065460205,0.0006348192691802979
1717513049812662300,6.557662353515625,-0.0028753280639648438,-0.012933224439620972,0.005515560507774353
1717513049822669000,6.5676689453125,0.0018854141235351562,-0.008384205400943756,0.005503062158823013
1717513049832675600,6.577675537109375,0.0065670013427734375,-0.008619606494903564,0.0054907724261283875
1717513049842682000,6.58768212890625,0.00646209716796875,-0.008851088583469391,0.0007700882852077484
1717513049852689000,6.59768896484375,0.0016508102416992188,-0.023204512894153595,0.0009399689733982086
1717513049862695400,6.6076953125,0.001628875732421875,-0.013879016041755676,0.0010037273168563843
1717513049872702200,6.6177021484375,-0.0031023025512695312,-0.014023259282112122,0.001065276563167572
1717513049882708700,6.627708740234375,0.006371498107910156,-0.01887369155883789,0.0012290887534618378
1717513049892715300,6.63771533203125,-0.007852554321289062,-0.009723670780658722,0.0013913214206695557
1717513049902722000,6.64772216796875,0.0017004013061523438,-0.009936757385730743,-0.0031577497720718384
1717513049912728600,6.657728515625,0.0016775131225585938,-0.010249584913253784,0.0017861872911453247
1717513049922735000,6.667735107421875,0.006363868713378906,-0.015265800058841705,-0.0028727613389492035
1717513049932742000,6.677741943359375,-0.0031528472900390625,-0.0060730427503585815,0.006773862987756729
1717513049942748400,6.68774853515625,-0.0030946731567382812,-0.020576059818267822,0.0067403800785541534
1717513049952755000,6.6977548828125,-0.0030364990234375,-0.016002975404262543,0.002102147787809372
1717513049962761700,6.70776171875,-0.0029783248901367188,-0.01631799340248108,0.006958413869142532
1717513049972768300,6.717768310546875,0.0017852783203125,-0.011815443634986877,-0.002494167536497116
1717513049982774800,6.72777490234375,0.0017614364624023438,-0.007388778030872345,0.0023342296481132507
1717513049992781600,6.737781494140625,-0.007678985595703125,-0.012452669441699982,0.007186625152826309
1717513050002788000,6.7477880859375,-0.0028371810913085938,-0.01743215322494507,0.0071462541818618774
1717513050012794600,6.757794677734375,0.0019254684448242188,-0.017620474100112915,0.0025000572204589844
1717513050022801400,6.767801513671875,-0.0028085708618164062,-0.013097062706947327,0.0027431808412075043
1717513050032808000,6.777807861328125,-0.0027551651000976562,-0.013357214629650116,-0.0018284469842910767
1717513050042814500,6.787814453125,0.00200653076171875,-0.013716742396354675,0.0030921176075935364
1717513050052821200,6.7978212890625,-0.0027294158935546875,-0.02809235453605652,0.00782858207821846
1717513050062827800,6.807827880859375,0.006739616394042969,-0.01397722214460373,0.007879592478275299
1717513050072834300,6.817834228515625,0.0019254684448242188,-0.023639895021915436,0.003222353756427765
1717513050082841000,6.827841064453125,-0.0028076171875,-0.009701833128929138,0.0033513307571411133
1717513050092847600,6.83784765625,0.0019540786743164062,-0.014727167785167694,0.0034781545400619507
1717513050102854100,6.847854248046875,-0.007489204406738281,-0.014960147440433502,0.00831146165728569
1717513050112861000,6.85786083984375,-0.00264739990234375,-0.015292525291442871,0.013167493045330048
1717513050122867500,6.867867431640625,-0.0025968551635742188,-0.0202246755361557,0.003816802054643631
1717513050132874000,6.8778740234375,0.0021638870239257812,-0.01576070487499237,0.004039142280817032
1717513050142880800,6.887880859375,0.00213623046875,-0.020788341760635376,0.00896637886762619
1717513050152887300,6.89788720703125,-0.0025987625122070312,-0.016418270766735077,0.009102892130613327
1717513050162893800,6.907893798828125,-0.0025472640991210938,-0.021538235247135162,-0.0002833530306816101
1717513050172900600,6.917900634765625,-0.007205963134765625,-0.021761424839496613,0.00461139902472496
1717513050182907100,6.9279072265625,-0.0023679733276367188,-0.01266651600599289,0.009425800293684006
1717513050192913700,6.93791357421875,-0.0023202896118164062,-0.017746157944202423,0.009553402662277222
1717513050202920200,6.947920166015625,-0.0022726058959960938,-0.022843971848487854,0.0002629198133945465
1717513050212926700,6.9579267578125,0.007191658020019531,-0.02785680443048477,0.005149781703948975
1717513050222933200,6.967933349609375,0.00237274169921875,-0.02807750552892685,0.010058481246232986
1717513050232939800,6.977939697265625,0.0023412704467773438,-0.028294526040554047,0.009970206767320633
1717513050242946600,6.987946533203125,0.0023126602172851562,-0.02390262484550476,0.00998668372631073
1717513050252953000,6.997953125,-0.0024251937866210938,-0.024189233779907227,0.005397569388151169
1717513050262959600,7.007959716796875,-0.007083892822265625,-0.01976247876882553,0.005593534559011459
1717513050272966100,7.017966064453125,-0.0022487640380859375,-0.02943199872970581,0.005889512598514557
1717513050282972700,7.02797265625,0.002506256103515625,-0.015500657260417938,0.006077274680137634
1717513050292979200,7.037979248046875,0.0024747848510742188,-0.01603057235479355,0.010867223143577576
1717513050302985700,7.04798583984375,0.007151603698730469,-0.021156981587409973,0.010972019284963608
1717513050312992500,7.057992431640625,0.00704193115234375,-0.02619796246290207,0.006366468966007233
1717513050322999000,7.0679990234375,-0.007190704345703125,-0.026446335017681122,0.0066495612263679504
1717513050333005600,7.078005615234375,-0.007061004638671875,-0.026690088212490082,0.006825931370258331
1717513050343012000,7.08801220703125,-0.0022249221801757812,-0.026930242776870728,0.011706676334142685
1717513050353018600,7.0980185546875,-0.0021762847900390625,-0.027269676327705383,0.011797469109296799
1717513050363025200,7.108025146484375,0.0025796890258789062,-0.022894367575645447,0.007179439067840576
1717513050373031700,7.11803173828125,0.00725555419921875,-0.018489181995391846,0.012054283171892166
1717513050383038200,7.1280380859375,-0.0022716522216796875,-0.02367790788412094,0.016847878694534302
1717513050393045000,7.138044921875,0.0024862289428710938,-0.028780147433280945,0.007435783743858337
1717513050403051500,7.148051513671875,-0.0022535324096679688,-0.024276867508888245,0.01711822673678398
1717513050413058000,7.15805810546875,-0.0022039413452148438,-0.02466052770614624,0.007804904133081436
1717513050423064600,7.168064697265625,0.0025529861450195312,-0.02503778040409088,0.012669313699007034
1717513050433071000,7.178071044921875,0.0072307586669921875,-0.025408267974853516,0.008140046149492264
1717513050443077600,7.18807763671875,0.002414703369140625,-0.030584953725337982,0.01299886405467987
1717513050453084200,7.198084228515625,0.0023860931396484375,-0.03557159751653671,0.008360829204320908
1717513050463091000,7.208091064453125,0.0070667266845703125,-0.031057946383953094,0.013320580124855042
1717513050473097500,7.218097412109375,-0.0024566650390625,-0.03132861107587814,0.003967266529798508
1717513050483104000,7.22810400390625,-0.0071125030517578125,-0.02688618004322052,0.009102195501327515
1717513050493110500,7.238110595703125,0.007143974304199219,-0.027226373553276062,0.00944293662905693
1717513050503117000,7.248116943359375,0.0023288726806640625,-0.036978088319301605,0.009674720466136932
1717513050513123600,7.25812353515625,0.0023021697998046875,-0.027732908725738525,0.00990263745188713
1717513050523130000,7.268130126953125,-0.0024328231811523438,-0.03747618943452835,0.014835361391305923
1717513050533137000,7.278136962890625,0.0023288726806640625,-0.02351408451795578,0.010268669575452805
1717513050543143400,7.288143310546875,0.0023021697998046875,-0.02861909568309784,0.010486684739589691
1717513050553150000,7.29814990234375,0.0022764205932617188,-0.03363851457834244,0.005993828177452087
1717513050563156500,7.308156494140625,0.0022516250610351562,-0.029260873794555664,0.0061798058450222015
1717513050573163000,7.3181630859375,-0.0024814605712890625,-0.03437338024377823,0.015779878944158554
1717513050583169500,7.32816943359375,0.0022821426391601562,-0.03469207137823105,0.01590603217482567
1717513050593176000,7.338176025390625,-0.0024509429931640625,-0.03971352428197861,0.011219572275876999
1717513050603182600,7.3481826171875,0.00701904296875,-0.03983994573354721,0.006713133305311203
1717513050613189400,7.358189453125,-0.0025014877319335938,-0.030650362372398376,0.007093682885169983
1717513050623196000,7.36819580078125,0.0022630691528320312,-0.03573919087648392,0.012074578553438187
1717513050633202400,7.378202392578125,0.002239227294921875,-0.03603462129831314,0.016972459852695465
1717513050643209000,7.388208984375,0.0069255828857421875,-0.03172034025192261,0.007661540061235428
1717513050653215500,7.398215576171875,-0.00730133056640625,-0.04150047153234482,0.012734875082969666
1717513050663222000,7.408221923828125,0.0069599151611328125,-0.036991290748119354,0.01772504299879074
1717513050673228800,7.418228759765625,-0.002559661865234375,-0.037265844643116,0.017820168286561966
1717513050683235300,7.4282353515625,0.0022058486938476562,-0.028119154274463654,0.013203710317611694
1717513050693241900,7.438241943359375,0.006892204284667969,-0.03325018286705017,0.013374194502830505
1717513050703248600,7.44824853515625,0.0020847320556640625,-0.0336909294128418,0.013540435582399368
1717513050713255200,7.458255126953125,0.002063751220703125,-0.04343823343515396,0.018412504345178604
1717513050723261700,7.46826171875,0.002044677734375,-0.03889729827642441,0.013889458030462265
1717513050733268500,7.4782685546875,-0.0026845932006835938,-0.043745942413806915,0.009441796690225601
1717513050743275000,7.48827490234375,0.0020837783813476562,-0.03919989615678787,0.014485456049442291
1717513050753281800,7.49828173828125,-0.0026454925537109375,-0.03472904860973358,0.014634586870670319
1717513050763288300,7.508288330078125,0.0021200180053710938,-0.03964661806821823,0.014781229197978973
1717513050773294800,7.518294921875,0.0020990371704101562,-0.03987691551446915,0.014925427734851837
1717513050783301600,7.528301513671875,-0.0026302337646484375,-0.03068617731332779,0.01506723091006279
1717513050793308200,7.53830810546875,0.00213623046875,-0.03577442467212677,0.015206664800643921
1717513050803314700,7.548314697265625,0.0021162033081054688,-0.036173105239868164,0.0153423473238945
1717513050813321500,7.558321533203125,-0.002613067626953125,-0.04587904363870621,0.0202876515686512
1717513050823328000,7.568327880859375,0.0068645477294921875,-0.041400156915187836,0.020443368703126907
1717513050833334500,7.57833447265625,0.0020570755004882812,-0.04170452803373337,0.020493213087320328
1717513050843341300,7.58834130859375,0.006748199462890625,-0.03258662670850754,0.025354109704494476
1717513050853347800,7.598347900390625,0.0019426345825195312,-0.042455099523067474,0.011196322739124298
1717513050863354400,7.608354248046875,-0.0027818679809570312,-0.04274245351552963,0.020919322967529297
1717513050873361200,7.618361083984375,0.0019893646240234375,-0.043024443089962006,0.02096124365925789
1717513050883367700,7.62836767578125,-0.002735137939453125,-0.04330230504274368,0.016395699232816696
1717513050893374200,7.638374267578125,-0.012091636657714844,-0.04347168654203415,0.02122161164879799
1717513050903381000,7.648381103515625,-0.0024557113647460938,-0.039033472537994385,0.016651708632707596
1717513050913387500,7.658387451171875,0.0023107528686523438,-0.04408583790063858,0.02157663181424141
1717513050923394000,7.66839404296875,-0.0024194717407226562,-0.04434540122747421,0.017002273350954056
1717513050933400800,7.67840087890625,0.002346038818359375,-0.039892032742500305,0.021921351552009583
1717513050943407400,7.688407470703125,-0.0023851394653320312,-0.04493067413568497,0.022048376500606537
1717513050953414000,7.698413818359375,-0.0023288726806640625,-0.04517673701047897,0.022173278033733368
1717513050963420700,7.708420654296875,0.0024347305297851562,-0.04541810601949692,0.02219429239630699
1717513050973427200,7.71842724609375,0.0024099349975585938,-0.04084300994873047,0.022319722920656204
1717513050983433700,7.728433837890625,-0.0023221969604492188,-0.04586521536111832,0.017732981592416763
1717513050993440500,7.7384404296875,-0.0022668838500976562,-0.046095110476017,0.017931286245584488
1717513051003447000,7.748447021484375,-0.0022125244140625,-0.04161316156387329,0.022730112075805664
1717513051013453600,7.75845361328125,0.0025501251220703125,-0.04662250727415085,0.018136531114578247
1717513051023460400,7.76846044921875,0.007232666015625,-0.04213176667690277,0.023035213351249695
1717513051033467000,7.778466796875,0.0024194717407226562,-0.051737792789936066,0.023145150393247604
1717513051043473400,7.788473388671875,-0.0023126602172851562,-0.04245263338088989,0.018441375344991684
1717513051053480200,7.798480224609375,0.007160186767578125,-0.04273940622806549,0.01852460205554962
1717513051063486700,7.80848681640625,-0.0023584365844726562,-0.04302199184894562,0.023520100861787796
1717513051073493200,7.8184931640625,0.0024061203002929688,-0.03859066218137741,0.01891336962580681
1717513051083500000,7.8285,0.0023832321166992188,-0.048359595239162445,0.023695822805166245
1717513051093506600,7.838506591796875,-0.0023469924926757812,-0.043839916586875916,0.01437605544924736
1717513051103513000,7.84851318359375,-0.006999015808105469,-0.048812754452228546,0.02404600754380226
1717513051113519900,7.858519775390625,-0.0068645477294921875,-0.04899350553750992,0.019430506974458694
1717513051123526400,7.8685263671875,0.0026845932006835938,-0.044462621212005615,0.0196005217730999
1717513051133533000,7.878532958984375,0.0026578903198242188,-0.044716477394104004,0.0197661854326725
1717513051143539700,7.888539794921875,0.0026302337646484375,-0.04967408627271652,0.02453593537211418
1717513051153546200,7.898546142578125,-0.0068149566650390625,-0.04031998664140701,0.024620868265628815
1717513051163552800,7.908552734375,0.0027322769165039062,-0.050059445202350616,0.024601098150014877
1717513051173559600,7.9185595703125,0.007412910461425781,-0.04551078379154205,0.01997634395956993
1717513051183566000,7.928566162109375,0.002597808837890625,-0.05045514553785324,0.02003398910164833
1717513051193572600,7.938572509765625,0.0025720596313476562,-0.05060850828886032,0.020193953067064285
1717513051203579100,7.9485791015625,0.007254600524902344,-0.050758711993694305,0.020249515771865845
1717513051213585700,7.958585693359375,0.0024433135986328125,-0.05090702325105667,0.020405899733304977
1717513051223592200,7.96859228515625,0.0071277618408203125,-0.04634426534175873,0.02045639604330063
1717513051233598700,7.9785986328125,0.0023183822631835938,-0.046566784381866455,0.025316398590803146
1717513051243605200,7.988605224609375,0.0022983551025390625,-0.05620279163122177,0.02078147977590561
1717513051253612000,7.998612060546875,-0.0024309158325195312,-0.042134590446949005,0.025637608021497726
