time,seconds_elapsed,z,y,x
1717513020599661000,0.1316611328125,0.008493423461914062,-0.011309333145618439,0.007655289024114609
1717513020609535000,0.141534912109375,0.003314971923828125,-0.004409268498420715,0.014558486640453339
1717513020619439600,0.151439697265625,0.007348060607910156,-0.0025297999382019043,0.007917966693639755
1717513020629378000,0.1613779296875,0.006716728210449219,-0.0008224025368690491,0.010673176497220993
1717513020639351300,0.171351318359375,0.00176239013671875,0.0006568208336830139,0.004447478801012039
1717513020649359600,0.181359619140625,0.0016183853149414062,0.006583161652088165,0.0032333359122276306
1717513020659401200,0.191401123046875,-0.007447242736816406,0.00331328809261322,-0.002453744411468506
1717513020669473500,0.2014736328125,0.0019788742065429688,0.009146779775619507,-0.007799327373504639
1717513020679572700,0.21157275390625,-0.00266265869140625,0.005663707852363586,-0.003850270062685013
1717513020689694200,0.221694091796875,-0.0070552825927734375,0.011441998183727264,-0.004658538848161697
1717513020699832000,0.23183203125,0.0023708343505859375,0.012417413294315338,-0.0010055266320705414
1717513020709980400,0.24198046875,0.0067844390869140625,0.008831620216369629,-0.006535116583108902
1717513020720133600,0.252133544921875,-0.0026769638061523438,0.009999901056289673,-0.011818241328001022
1717513020730250200,0.262250244140625,0.0019989013671875,0.011031121015548706,-0.007741956040263176
1717513020740256800,0.2722568359375,0.001895904541015625,0.007544025778770447,-0.008428733795881271
1717513020750263300,0.28226318359375,0.001800537109375,0.02257208526134491,-0.004513945430517197
1717513020760269800,0.292269775390625,-0.0028839111328125,0.0186508446931839,-0.005259722471237183
1717513020770276400,0.3022763671875,-0.00739288330078125,0.014910317957401276,-0.006086112931370735
1717513020780283000,0.312282958984375,0.0066986083984375,0.01594144105911255,-0.0068908557295799255
1717513020790289400,0.322289306640625,0.0018262863159179688,0.021575093269348145,-0.007676325738430023
1717513020800296000,0.3322958984375,0.00174713134765625,0.01789681613445282,-0.008444501087069511
1717513020810302500,0.342302490234375,0.0016736984252929688,0.018889836966991425,-0.013825897127389908
1717513020820309000,0.35230908203125,0.0016050338745117188,0.019871868193149567,-0.014415118843317032
1717513020830315500,0.3623154296875,-0.0030984878540039062,0.025482699275016785,-0.010362157598137856
1717513020840322000,0.372322021484375,-0.007662773132324219,0.026305124163627625,-0.015830477699637413
1717513020850328600,0.38232861328125,0.0018415451049804688,0.0225817933678627,-0.016504894942045212
1717513020860335000,0.392335205078125,0.006426811218261719,0.023534074425697327,-0.012420782819390297
1717513020870341600,0.402341552734375,0.00157928466796875,0.024479180574417114,-0.017669029533863068
1717513020880348200,0.41234814453125,0.006180763244628906,0.020860783755779266,-0.01823216862976551
1717513020890354400,0.4223544921875,0.0013427734375,0.031237900257110596,-0.018793806433677673
1717513020900361000,0.43236083984375,-0.008035659790039062,0.03203936666250229,-0.01935405097901821
1717513020910367500,0.442367431640625,0.0014896392822265625,0.028173163533210754,-0.024581676349043846
1717513020920374000,0.4523740234375,-0.0032320022583007812,0.03853612393140793,-0.020353926345705986
1717513020930380500,0.462380615234375,-0.0031690597534179688,0.029977872967720032,-0.030363863334059715
1717513020940387000,0.472386962890625,0.0015697479248046875,0.035564303398132324,-0.026024580001831055
1717513020950393600,0.4823935546875,0.006201744079589844,0.036260731518268585,-0.021901210770010948
1717513020960400100,0.492400146484375,0.001369476318359375,0.041745059192180634,-0.017778178676962852
1717513020970406700,0.50240673828125,0.0013275146484375,0.03307788819074631,-0.013856211677193642
1717513020980413200,0.5124130859375,0.0012874603271484375,0.038773078471422195,-0.014608034864068031
1717513020990419700,0.522419677734375,0.0012483596801757812,0.039678554981946945,-0.024728083983063698
1717513021000426200,0.53242626953125,0.005902290344238281,0.03578932210803032,-0.025270957499742508
1717513021010432800,0.542432861328125,0.005772590637207031,0.036685455590486526,-0.02571064792573452
1717513021020439300,0.552439208984375,0.005648612976074219,0.037578608840703964,-0.021560970693826675
1717513021030445800,0.56244580078125,0.0055294036865234375,0.03846919909119606,-0.026891417801380157
1717513021040452000,0.5724521484375,0.0007171630859375,0.03465919941663742,-0.036829281598329544
1717513021050458600,0.582458740234375,0.0006933212280273438,0.04503129422664642,-0.018397826701402664
1717513021060465200,0.592465087890625,0.005372047424316406,0.04112624749541283,-0.02381449192762375
1717513021070471700,0.6024716796875,0.0052661895751953125,0.04671036824584007,-0.024542473256587982
1717513021080478200,0.612478271484375,0.005164146423339844,0.03799515962600708,-0.034571193158626556
1717513021090484700,0.622484619140625,0.00035953521728515625,0.048368457704782486,-0.030320096760988235
1717513021100491300,0.6324912109375,0.00034427642822265625,0.039751362055540085,-0.03096046671271324
1717513021110497800,0.642497802734375,0.00032901763916015625,0.045415110886096954,-0.026890438050031662
1717513021120504300,0.65250439453125,0.009732246398925781,0.04627589136362076,-0.03680761158466339
1717513021130510800,0.6625107421875,-0.0045642852783203125,0.0518309623003006,-0.04195409640669823
1717513021140517400,0.672517333984375,0.0096282958984375,0.05268804728984833,-0.03278578817844391
1717513021150524000,0.68252392578125,0.0047512054443359375,0.044113703072071075,-0.028582077473402023
1717513021160530400,0.692530517578125,0.0046634674072265625,0.0498080775141716,-0.038574207574129105
1717513021170537000,0.702536865234375,0.004578590393066406,0.050595734268426895,-0.0389830619096756
1717513021180543200,0.712543212890625,0.004494667053222656,0.05607892572879791,-0.0393846221268177
1717513021190549800,0.7225498046875,0.004412651062011719,0.05676215514540672,-0.025653690099716187
1717513021200556300,0.732556396484375,0.0043315887451171875,0.048016808927059174,-0.03569502755999565
1717513021210562800,0.742562744140625,0.0042514801025390625,0.06296025216579437,-0.04085995629429817
1717513021220569300,0.7525693359375,0.008881568908691406,0.0495062880218029,-0.04123019799590111
1717513021230575900,0.762575927734375,-0.0053997039794921875,0.05981958284974098,-0.03698887676000595
1717513021240582400,0.77258251953125,0.004100799560546875,0.06514917314052582,-0.03732039034366608
1717513021250589000,0.7825888671875,-0.000682830810546875,0.056367382407188416,-0.028332386165857315
1717513021260595500,0.792595458984375,0.0040302276611328125,0.057149164378643036,-0.0336199551820755
1717513021270602000,0.80260205078125,0.003956794738769531,0.05781472474336624,-0.03871617466211319
1717513021280608500,0.8126083984375,-0.000823974609375,0.06328102946281433,-0.03912205994129181
1717513021290615000,0.822614990234375,-0.005524635314941406,0.06384442746639252,-0.03952116519212723
1717513021300621600,0.83262158203125,0.003977775573730469,0.06450164318084717,-0.044622186571359634
1717513021310628000,0.842628173828125,0.008614540100097656,0.060439325869083405,-0.0401177778840065
1717513021320634600,0.852634521484375,0.008465766906738281,0.061153344810009,-0.040500249713659286
1717513021330641000,0.862640869140625,0.0036106109619140625,0.06646092236042023,-0.04087669774889946
1717513021340647400,0.8726474609375,0.0035448074340820312,0.05755419284105301,-0.03664078935980797
1717513021350654000,0.882654052734375,0.0034809112548828125,0.06292176246643066,-0.04189301282167435
1717513021360660500,0.892660400390625,-0.0012912750244140625,0.058885976672172546,-0.04695479944348335
1717513021370667300,0.902667236328125,-0.00127410888671875,0.06893997639417648,-0.037806086242198944
1717513021380673800,0.912673828125,0.008159637451171875,0.06470063328742981,-0.043038852512836456
1717513021390680300,0.922680419921875,-0.0013980865478515625,0.055926546454429626,-0.03876689448952675
1717513021400686800,0.932686767578125,0.0033292770385742188,0.06132126972079277,-0.043880097568035126
1717513021410693400,0.942693359375,0.01739501953125,0.062020786106586456,-0.03949117660522461
1717513021420700000,0.952699951171875,-0.0017337799072265625,0.07212589681148529,-0.049301210790872574
1717513021430706400,0.96270654296875,0.007708549499511719,0.06783358007669449,-0.04011334106326103
1717513021440713200,0.972713134765625,0.0028676986694335938,0.06832142919301987,-0.04991299659013748
1717513021450719700,0.9827197265625,0.0075244903564453125,0.0736129879951477,-0.04542352259159088
1717513021460726300,0.992726318359375,0.0026865005493164062,0.0692959651350975,-0.04111210256814957
1717513021470732800,1.00273291015625,-0.0020704269409179688,0.0838852971792221,-0.046289727091789246
1717513021480739300,1.0127392578125,0.00737762451171875,0.0700831264257431,-0.04646599665284157
1717513021490745900,1.022745849609375,-0.0021657943725585938,0.07053357362747192,-0.042033955454826355
1717513021500752400,1.03275244140625,-0.0021333694458007812,0.07107975333929062,-0.04238436371088028
1717513021510759000,1.042759033203125,0.0026082992553710938,0.07151360809803009,-0.0428321436047554
1717513021520765700,1.052765625,0.0025615692138671875,0.06733488291501999,-0.047877825796604156
1717513021530772200,1.062772216796875,0.00722503662109375,0.07735148817300797,-0.043421968817710876
1717513021540778800,1.07277880859375,-0.002315521240234375,0.06365831196308136,-0.053166404366493225
1717513021550785300,1.082785400390625,-0.0022792816162109375,0.07363299280405045,-0.04391380399465561
1717513021560791800,1.092791748046875,0.00246429443359375,0.07883618026971817,-0.0442328117787838
1717513021570798300,1.10279833984375,0.0024204254150390625,0.0698268711566925,-0.05396369472146034
1717513021580804900,1.112804931640625,0.007086753845214844,0.07499028742313385,-0.04940659552812576
1717513021590811600,1.122811767578125,0.00225830078125,0.08017090708017349,-0.054342642426490784
1717513021600818200,1.132818115234375,0.0022192001342773438,0.0757446363568306,-0.04988225921988487
1717513021610824700,1.14282470703125,0.0021800994873046875,0.08091258257627487,-0.0502048060297966
1717513021620831200,1.152831298828125,-0.0025663375854492188,0.07657720893621445,-0.05041874572634697
1717513021630837800,1.162837646484375,0.0021829605102539062,0.08162818849086761,-0.04602392762899399
1717513021640844300,1.17284423828125,-0.0025634765625,0.07257244735956192,-0.04630772024393082
1717513021650850800,1.182850830078125,0.006894111633300781,0.082398921251297,-0.04658694565296173
1717513021660857300,1.192857421875,-0.0026397705078125,0.0827476978302002,-0.046861518174409866
1717513021670864100,1.202864013671875,-0.007305145263671875,0.07827868312597275,-0.051839929074048996
1717513021680870700,1.21287060546875,0.0022325515747070312,0.08811316639184952,-0.05212997645139694
1717513021690877200,1.222877197265625,0.0021944046020507812,0.07884612679481506,-0.05231195315718651
1717513021700883700,1.2328837890625,0.0021572113037109375,0.07925397902727127,-0.05249089002609253
1717513021710890200,1.24289013671875,0.0021200180053710938,0.07965504378080368,-0.05266684293746948
1717513021720896800,1.252896728515625,0.0067920684814453125,0.0846548080444336,-0.05765168368816376
1717513021730903300,1.2629033203125,0.0066776275634765625,0.08496589213609695,-0.05303302779793739
1717513021740910000,1.27291015625,-0.0028514862060546875,0.07114619761705399,-0.053200095891952515
1717513021750916600,1.28291650390625,-0.0028047561645507812,0.08099640160799026,-0.048655614256858826
1717513021760923100,1.292923095703125,0.001949310302734375,0.08126524835824966,-0.044290103018283844
1717513021770929700,1.3029296875,0.0019168853759765625,0.08623822778463364,-0.05412313714623451
1717513021780936200,1.312936279296875,0.006592750549316406,0.0864197388291359,-0.05427185446023941
1717513021790942700,1.322942626953125,0.0017728805541992188,0.08199287950992584,-0.05441809818148613
1717513021800949200,1.33294921875,0.0017423629760742188,0.08234841376543045,-0.05927049368619919
1717513021810956000,1.3429560546875,0.011130332946777344,0.08740663528442383,-0.054728057235479355
1717513021820962600,1.352962646484375,-0.0031805038452148438,0.08296357095241547,-0.050158221274614334
1717513021830969000,1.362968994140625,-0.0031270980834960938,0.08801155537366867,-0.05037301033735275
1717513021840975600,1.3729755859375,-0.0077838897705078125,0.08355820924043655,-0.050584204494953156
1717513021850982000,1.38298193359375,0.0017633438110351562,0.08859626948833466,-0.05550045147538185
1717513021860988400,1.392988525390625,-0.0029745101928710938,0.08884157240390778,-0.055626049637794495
1717513021870995000,1.402994873046875,0.0017833709716796875,0.07966578751802444,-0.05114429071545601
1717513021881001500,1.41300146484375,0.0017538070678710938,0.08958056569099426,-0.05134258419275284
1717513021891008000,1.423008056640625,0.0017242431640625,0.08510107547044754,-0.05143433064222336
1717513021901014500,1.4330146484375,0.0016956329345703125,0.09001001715660095,-0.05162768065929413
1717513021911021000,1.44302099609375,0.001667022705078125,0.0854201540350914,-0.06594370305538177
1717513021921027600,1.453027587890625,0.00634765625,0.08561559021472931,-0.05176962912082672
1717513021931034000,1.4630341796875,0.00153350830078125,0.08591082692146301,-0.056666094809770584
1717513021941040600,1.47304052734375,0.006217002868652344,0.08609791100025177,-0.05216699093580246
1717513021951047200,1.483047119140625,-0.00330352783203125,0.08638494461774826,-0.05705674737691879
1717513021961053700,1.4930537109375,0.001461029052734375,0.09598134458065033,-0.061865076422691345
1717513021971060200,1.503060302734375,0.006146430969238281,0.09610364586114883,-0.05246739462018013
1717513021981066800,1.513066650390625,0.006045341491699219,0.09151574969291687,-0.05274695158004761
1717513021991073000,1.523072998046875,0.0059452056884765625,0.08690088987350464,-0.05762713402509689
1717513022001079600,1.53307958984375,0.0011386871337890625,0.09659178555011749,-0.062425896525382996
1717513022011086000,1.543086181640625,0.005828857421875,0.08247515559196472,-0.057727571576833725
1717513022021092600,1.553092529296875,0.0010242462158203125,0.09224005043506622,-0.057816147804260254
1717513022031099100,1.56309912109375,0.0010080337524414062,0.08771640807390213,-0.04858929663896561
1717513022041105700,1.573105712890625,0.0057010650634765625,0.08316493779420853,-0.053538769483566284
1717513022051112200,1.5831123046875,-0.0038099288940429688,0.08820977061986923,-0.05850900337100029
1717513022061118700,1.59311865234375,0.0009632110595703125,0.08375311642885208,-0.06329306960105896
1717513022071125200,1.603125244140625,0.005656242370605469,0.0840795487165451,-0.058580268174409866
1717513022081131800,1.6131318359375,-0.008563041687011719,0.0891091525554657,-0.0633632093667984
1717513022091138300,1.62313818359375,0.005706787109375,0.09395167231559753,-0.058545973151922226
1717513022101144800,1.633144775390625,-0.0038042068481445312,0.08469094336032867,-0.05391227453947067
1717513022111151400,1.6431513671875,0.010385513305664062,0.08960709720849991,-0.058772992342710495
1717513022121158000,1.653157958984375,0.005504608154296875,0.09444135427474976,-0.054135512560606
1717513022131164400,1.663164306640625,0.0007047653198242188,0.09448646008968353,-0.05899253487586975
1717513022141170700,1.673170654296875,-0.0040149688720703125,0.09453081339597702,-0.059059999883174896
1717513022151177200,1.68317724609375,0.00547027587890625,0.08996906876564026,-0.05441773682832718
1717513022161183700,1.693183837890625,0.0006723403930664062,0.09490033984184265,-0.05466465651988983
1717513022171190300,1.703190185546875,0.00537109375,0.09033247083425522,-0.0548042468726635
1717513022181196800,1.71319677734375,0.0005750656127929688,0.09054934233427048,-0.05494151636958122
1717513022191203300,1.723203369140625,0.005275726318359375,0.09557446092367172,-0.055076491087675095
1717513022201209900,1.7332099609375,0.0051898956298828125,0.09099515527486801,-0.05991778522729874
1717513022211216400,1.74321630859375,-0.009020805358886719,0.09120102226734161,-0.05996982753276825
1717513022221223000,1.753222900390625,0.005257606506347656,0.09140343964099884,-0.0553123876452446
1717513022231229400,1.7632294921875,0.0004634857177734375,0.10101969540119171,-0.060149773955345154
1717513022241236000,1.773236083984375,-0.004250526428222656,0.1010582447052002,-0.06030115485191345
1717513022251242500,1.783242431640625,0.0005311965942382812,0.09167918562889099,-0.06505537778139114
1717513022261249000,1.7932490234375,-0.004184722900390625,0.0918736383318901,-0.05550131946802139
1717513022271255600,1.803255615234375,0.0053043365478515625,0.09667018800973892,-0.06514737755060196
1717513022281261800,1.81326171875,0.005217552185058594,0.09678146988153458,-0.05569503456354141
1717513022291268400,1.823268310546875,0.0051326751708984375,0.08747347444295883,-0.060629259794950485
1717513022301275000,1.83327490234375,0.0050487518310546875,0.09244666248559952,-0.055960819125175476
1717513022311281400,1.843281494140625,0.0002574920654296875,0.09733723849058151,-0.06089067459106445
1717513022321288200,1.8532880859375,-0.0044536590576171875,0.09743746370077133,-0.06092648580670357
1717513022331294700,1.863294677734375,0.00033092498779296875,0.08801556378602982,-0.06567028909921646
1717513022341301200,1.87330126953125,0.005035400390625,0.10229367762804031,-0.06562642753124237
1717513022351307800,1.883307861328125,0.00024509429931640625,0.09289409965276718,-0.056166112422943115
1717513022361314300,1.893314208984375,0.009659767150878906,0.08835979551076889,-0.05167531967163086
1717513022371320800,1.90332080078125,0.00008392333984375,0.09331827610731125,-0.06128191947937012
1717513022381327400,1.913327392578125,0.00008487701416015625,0.09348578006029129,-0.06131122261285782
1717513022391334100,1.923334228515625,0.004794120788574219,0.09365023672580719,-0.06134001910686493
1717513022401340700,1.933340576171875,0.00000762939453125,0.09370871633291245,-0.05665974318981171
1717513022411347200,1.94334716796875,-0.004698753356933594,0.0985780730843544,-0.06137140840291977
1717513022421353700,1.953353759765625,0.0000896453857421875,0.09394906461238861,-0.061399199068546295
1717513022431360300,1.9633603515625,0.0000896453857421875,0.08939721435308456,-0.05671791732311249
1717513022441366800,1.97336669921875,-0.004618644714355469,0.09433840960264206,-0.0568232461810112
1717513022451373300,1.983373291015625,0.00016880035400390625,0.09448865056037903,-0.06163541227579117
1717513022461380000,1.993380126953125,-0.009248733520507812,0.09934499114751816,-0.06165877729654312
1717513022471386600,2.00338671875,0.005034446716308594,0.09941176325082779,-0.05697312951087952
1717513022481393200,2.01339306640625,0.004952430725097656,0.09476909041404724,-0.0522623285651207
1717513022491399700,2.023399658203125,0.004872322082519531,0.09020356833934784,-0.057150498032569885
1717513022501406200,2.03340625,0.004794120788574219,0.09513134509325027,-0.06666579842567444
1717513022511412700,2.043412841796875,0.00000858306884765625,0.09526840597391129,-0.06189672276377678
1717513022521419300,2.053419189453125,0.00001049041748046875,0.09540317952632904,-0.05710386857390404
1717513022531425800,2.06342578125,0.004721641540527344,0.10024431347846985,-0.06201460212469101
1717513022541432600,2.0734326171875,0.004645347595214844,0.09558757394552231,-0.062031641602516174
1717513022551439000,2.083439208984375,-0.0048465728759765625,0.09561380743980408,-0.05744306370615959
1717513022561445600,2.093445556640625,0.009363174438476562,0.10034818947315216,-0.06695348769426346
1717513022571452200,2.1034521484375,0.0045013427734375,0.10029508918523788,-0.06217963248491287
1717513022581458700,2.113458740234375,-0.00027942657470703125,0.09563755244016647,-0.06219394505023956
1717513022591465200,2.12346533203125,0.009144783020019531,0.1003718376159668,-0.05749940127134323
1717513022601471700,2.1334716796875,-0.0004215240478515625,0.10042164474725723,-0.05759173259139061
1717513022611478500,2.143478515625,-0.0004119873046875,0.09565875679254532,-0.062391120940446854
1717513022621485000,2.153485107421875,-0.0004024505615234375,0.09097526222467422,-0.05769331753253937
1717513022631491600,2.16349169921875,0.004315376281738281,0.09578701108694077,-0.05767914652824402
1717513022641498000,2.173498046875,0.008955001831054688,0.09110139310359955,-0.057768478989601135
1717513022651504600,2.183504638671875,-0.005316734313964844,0.10061967372894287,-0.06727353483438492
1717513022661511200,2.19351123046875,-0.0005168914794921875,0.10056211054325104,-0.062494367361068726
1717513022671517700,2.203517578125,0.004202842712402344,0.09579690545797348,-0.06731531023979187
1717513022681524200,2.213524169921875,0.0041351318359375,0.10523693263530731,-0.05782686173915863
1717513022691531000,2.223531005859375,0.004069328308105469,0.09568523615598679,-0.057913750410079956
1717513022701537500,2.23353759765625,-0.0007038116455078125,0.09100136160850525,-0.05810246616601944
1717513022711544000,2.2435439453125,-0.0006895065307617188,0.10052133351564407,-0.06289336830377579
1717513022721550600,2.253550537109375,-0.000675201416015625,0.09586010873317719,-0.05808395892381668
1717513022731557000,2.26355712890625,-0.0006608963012695312,0.10069376975297928,-0.0628751665353775
1717513022741563600,2.273563720703125,-0.0006465911865234375,0.09121754765510559,-0.058169327676296234
1717513022751570200,2.283570068359375,0.0040760040283203125,0.10073390603065491,-0.0723762959241867
1717513022761577000,2.293576904296875,-0.000698089599609375,0.09136055409908295,-0.0579916387796402
1717513022771583500,2.30358349609375,-0.0053920745849609375,0.10568639636039734,-0.057972513139247894
1717513022781590000,2.313590087890625,-0.010010719299316406,0.09914027154445648,-0.06641940772533417
1717513022791596500,2.323596435546875,0.008990287780761719,0.097413070499897,-0.055891428142786026
1717513022801603000,2.33360302734375,-0.0052852630615234375,0.09100712090730667,-0.05495639145374298
1717513022811609600,2.343609619140625,0.008928298950195312,0.08952140808105469,-0.05874589458107948
1717513022821616000,2.3536162109375,-0.0006380081176757812,0.09266721457242966,-0.053055379539728165
1717513022831622700,2.36362255859375,-0.0006275177001953125,0.08173952251672745,-0.05677399784326553
1717513022841629400,2.37362939453125,0.0040912628173828125,0.08030937612056732,-0.055722422897815704
1717513022851636000,2.383635986328125,0.0040225982666015625,0.08832176774740219,-0.05950064957141876
1717513022861642500,2.393642578125,0.003955841064453125,0.08207636326551437,-0.049090564250946045
1717513022871649000,2.40364892578125,-0.005527496337890625,0.0853537991642952,-0.05298025161027908
1717513022881655600,2.413655517578125,0.008690834045410156,0.0745556578040123,-0.05680561065673828
1717513022891662000,2.423662109375,-0.0008716583251953125,0.07796156406402588,-0.051150526851415634
1717513022901668600,2.433668701171875,0.0038518905639648438,0.07660365104675293,-0.04088160768151283
1717513022911675100,2.443675048828125,0.003787994384765625,0.07066470384597778,-0.04961893707513809
1717513022921681700,2.453681640625,0.008433341979980469,0.07414000481367111,-0.05350235849618912
1717513022931688200,2.463688232421875,0.00829315185546875,0.08707929402589798,-0.05261298641562462
1717513022941694700,2.47369482421875,-0.001262664794921875,0.07155272364616394,-0.04232177138328552
1717513022951701000,2.483700927734375,-0.005949974060058594,0.06570354104042053,-0.04172332584857941
1717513022961707500,2.49370751953125,0.003566741943359375,0.07397548109292984,-0.045740481466054916
1717513022971714000,2.503714111328125,-0.001201629638671875,0.06327632069587708,-0.04969121515750885
1717513022981720600,2.513720458984375,-0.0011816024780273438,0.07169418781995773,-0.04415944218635559
1717513022991727000,2.52372705078125,0.0035467147827148438,0.07055556774139404,-0.038720373064279556
1717513023001733600,2.533733642578125,-0.0059299468994140625,0.0693335235118866,-0.047497931867837906
1717513023011740200,2.543740234375,-0.0011224746704101562,0.06332089751958847,-0.04190092161297798
1717513023021746700,2.55374658203125,-0.0011034011840820312,0.06222119554877281,-0.031689390540122986
1717513023031753200,2.563753173828125,0.00362396240234375,0.0706610232591629,-0.04529440775513649
1717513023041759700,2.573759765625,0.008272171020507812,0.06002328172326088,-0.0445476658642292
1717513023051766300,2.583766357421875,-0.0012826919555664062,0.0590839684009552,-0.0343962162733078
1717513023061772800,2.593772705078125,-0.0012617111206054688,0.05334911122918129,-0.04324910789728165
1717513023071779300,2.603779296875,-0.0012407302856445312,0.061836205422878265,-0.03782865032553673
1717513023081785900,2.613785888671875,-0.0012197494506835938,0.060868486762046814,-0.03249887004494667
1717513023091792400,2.62379248046875,-0.0011997222900390625,0.06452275812625885,-0.03667542710900307
1717513023101798700,2.633798583984375,0.003528594970703125,0.044573623687028885,-0.040782637894153595
1717513023111805200,2.64380517578125,0.0081787109375,0.05802086368203163,-0.03530159220099449
1717513023121811700,2.653811767578125,0.008042335510253906,0.052306726574897766,-0.03472396731376648
1717513023131818200,2.663818359375,-0.0015087127685546875,0.05139678716659546,-0.03415615111589432
1717513023141824800,2.67382470703125,-0.001483917236328125,0.0506056547164917,-0.02868235670030117
1717513023151831300,2.683831298828125,-0.0014591217041015625,0.04972473159432411,-0.023506496101617813
1717513023161837800,2.693837890625,0.0032739639282226562,0.04896201938390732,-0.027834255248308182
1717513023171844400,2.70384423828125,0.0032196044921875,0.04810896888375282,-0.03209005668759346
1717513023181851000,2.713850830078125,-0.0015430450439453125,0.04737359285354614,-0.03627510368824005
1717513023191857400,2.723857421875,0.0031909942626953125,0.046547286212444305,-0.02626528963446617
1717513023201864000,2.733864013671875,0.007846832275390625,0.05515208840370178,-0.030548296868801117
1717513023211870500,2.743870361328125,0.0030078887939453125,0.0494878850877285,-0.029947739094495773
1717513023221877000,2.753876953125,-0.001750946044921875,0.04391822591423988,-0.02946069836616516
1717513023231883500,2.763883544921875,0.002986907958984375,0.047858648002147675,-0.02417070046067238
1717513023241889800,2.773889892578125,-0.0017719268798828125,0.04231644421815872,-0.023780502378940582
1717513023251896300,2.783896240234375,0.0029659271240234375,0.041575390845537186,-0.02800247073173523
1717513023261902800,2.79390283203125,0.0029172897338867188,0.0407436229288578,-0.027445852756500244
1717513023271909400,2.803909423828125,-0.0018396377563476562,0.03532063215970993,-0.031607527285814285
1717513023281916000,2.813916015625,-0.0018091201782226562,0.03469699248671532,-0.026282530277967453
1717513023291922400,2.82392236328125,-0.006487846374511719,0.04820970445871353,-0.02104736864566803
1717513023301929000,2.833928955078125,-0.006379127502441406,0.04255973547697067,-0.02531781792640686
1717513023311935700,2.843935791015625,-0.00156402587890625,0.04181617125868797,-0.020100530236959457
1717513023321942300,2.8539423828125,-0.0015382766723632812,0.0363769568502903,-0.019782166928052902
1717513023331948800,2.86394873046875,0.012613296508789062,0.03573745861649513,-0.02888706512749195
1717513023341955300,2.873955322265625,-0.0017223358154296875,0.03510914370417595,-0.028320567682385445
1717513023351961900,2.8839619140625,-0.00640106201171875,0.03438859432935715,-0.022952530533075333
1717513023361968400,2.893968505859375,-0.0015859603881835938,0.03849240392446518,-0.01307024247944355
1717513023371975000,2.903974853515625,-0.0015583038330078125,0.03771679475903511,-0.022187456488609314
1717513023381981700,2.913981689453125,0.0031766891479492188,0.03234954923391342,-0.021736647933721542
1717513023391988200,2.92398828125,-0.0015850067138671875,0.03178119659423828,-0.021294554695487022
1717513023401994800,2.933994873046875,0.012567520141601562,0.031326308846473694,-0.016153164207935333
1717513023412001300,2.944001220703125,0.0029420852661132812,0.030673399567604065,-0.01580740138888359
1717513023422007800,2.9540078125,0.0028944015502929688,0.030032388865947723,-0.020177407190203667
1717513023432014300,2.964014404296875,-0.006569862365722656,0.03411174565553665,-0.015162132680416107
1717513023442020900,2.974020751953125,-0.001750946044921875,0.0287071093916893,-0.019545910879969597
1717513023452027600,2.984027587890625,-0.001720428466796875,0.02810242772102356,-0.014441033825278282
1717513023462034200,2.9940341796875,0.0077266693115234375,0.027509406208992004,-0.018839403986930847
1717513023472040700,3.004040771484375,0.0028896331787109375,0.027030833065509796,-0.018458304926753044
1717513023482047200,3.014047119140625,-0.0018672943115234375,0.026561811566352844,-0.013376746326684952
1717513023492053800,3.0240537109375,0.002872467041015625,0.03081086277961731,-0.017798922955989838
1717513023502060300,3.034060302734375,0.0028257369995117188,0.025470338761806488,-0.017337417230010033
1717513023512066800,3.04406689453125,0.0027799606323242188,0.02963779866695404,-0.016988830640912056
1717513023522073300,3.0540732421875,-0.0019741058349609375,0.019612066447734833,-0.016647309064865112
1717513023532080000,3.064080078125,0.0027685165405273438,0.02858993411064148,-0.01631276123225689
1717513023542086700,3.074086669921875,-0.0019865036010742188,0.023397162556648254,-0.011175459250807762
1717513023552093200,3.08409326171875,0.0027561187744140625,0.027607090771198273,-0.020354177802801132
1717513023562099700,3.094099609375,-0.0019969940185546875,0.03174890577793121,-0.01515294797718525
1717513023572106200,3.104106201171875,-0.0019636154174804688,0.026509612798690796,-0.014853168278932571
1717513023582112800,3.11411279296875,-0.006638526916503906,0.016547895967960358,-0.014560546725988388
1717513023592119300,3.124119384765625,-0.0018186569213867188,0.0255889892578125,-0.018982812762260437
1717513023602126000,3.1341259765625,-0.0017881393432617188,0.015750229358673096,-0.013813897967338562
1717513023612132600,3.144132568359375,-0.006465911865234375,0.024808764457702637,-0.00883663073182106
1717513023622139100,3.15413916015625,-0.006358146667480469,0.019696027040481567,-0.008549882099032402
1717513023632145700,3.164145751953125,0.00316619873046875,0.023984909057617188,-0.008372634649276733
1717513023642152200,3.174152099609375,-0.00159454345703125,0.02349567413330078,-0.01290997862815857
1717513023652158700,3.18415869140625,-0.006275177001953125,0.013599634170532227,-0.012665338814258575
1717513023662165200,3.194165283203125,0.007956504821777344,0.017996564507484436,-0.017135590314865112
1717513023672171800,3.204171875,-0.006300926208496094,0.02232249081134796,-0.01201307401061058
1717513023682178600,3.214178466796875,0.0032224655151367188,0.017161674797534943,-0.011789174750447273
1717513023692185000,3.22418505859375,0.003170013427734375,0.026214689016342163,-0.00686340406537056
1717513023702191600,3.234191650390625,-0.001590728759765625,0.020993299782276154,-0.011335829272866249
1717513023712198100,3.2441982421875,0.0031452178955078125,0.020569786429405212,-0.006421951577067375
1717513023722204700,3.25420458984375,-0.006323814392089844,0.015446968376636505,-0.015717919915914536
1717513023732211200,3.264211181640625,0.0031986236572265625,0.015223905444145203,-0.006025860086083412
1717513023742217700,3.2742177734375,0.0031461715698242188,0.014903217554092407,-0.0012068767100572586
1717513023752224500,3.284224609375,0.0030946731567382812,0.028715848922729492,-0.015304667875170708
1717513023762231000,3.29423095703125,-0.0016641616821289062,0.018757447600364685,-0.01023186556994915
1717513023772237600,3.304237548828125,0.0030727386474609375,0.023092947900295258,-0.005348864942789078
1717513023782244000,3.314244140625,-0.00168609619140625,0.013129234313964844,-0.014674985781311989
1717513023792250600,3.324250732421875,-0.0016574859619140625,0.012854143977165222,-0.014430366456508636
1717513023802257200,3.334257080078125,0.003078460693359375,0.02200290560722351,-0.009483054280281067
1717513023812263700,3.344263671875,0.0030279159545898438,0.016875438392162323,-0.0045166779309511185
1717513023822270200,3.354270263671875,-0.0017299652099609375,0.02125237137079239,-0.009052842855453491
1717513023832277000,3.364277099609375,-0.0016994476318359375,0.011329606175422668,-0.008805574849247932
1717513023842283500,3.374283447265625,-0.006379127502441406,0.015803292393684387,-0.0038554277271032333
1717513023852290000,3.3842900390625,-0.0015630722045898438,0.010683953762054443,-0.008509822189807892
1717513023862296600,3.394296630859375,0.007880210876464844,0.010463818907737732,-0.0036709681153297424
1717513023872303000,3.40430322265625,0.0030422210693359375,0.010146088898181915,-0.008228162303566933
1717513023882309600,3.4143095703125,-0.0064239501953125,0.014544308185577393,-0.008002232760190964
1717513023892316200,3.424316162109375,-0.0063152313232421875,0.014162689447402954,-0.0030728615820407867
1717513023902323000,3.434322998046875,0.0032091140747070312,0.009080946445465088,-0.007644219323992729
1717513023912329500,3.44432958984375,-0.0015506744384765625,0.008794330060482025,-0.007433054968714714
1717513023922336000,3.4543359375,-0.0109405517578125,0.013120345771312714,-0.0073291342705488205
1717513023932342500,3.464342529296875,0.0033674240112304688,0.012874454259872437,-0.007228285074234009
1717513023942349000,3.47434912109375,0.0033121109008789062,0.01263497769832611,-0.007027165964245796
1717513023952355600,3.48435546875,0.00325775146484375,0.002881377935409546,-0.006933974102139473
1717513023962362000,3.494362060546875,-0.0015039443969726562,0.00270959734916687,-0.002135932445526123
1717513023972369000,3.504368896484375,-0.0014781951904296875,0.007251709699630737,0.002684161067008972
1717513023982375400,3.51437548828125,-0.0014524459838867188,0.0023037493228912354,-0.001993579789996147
1717513023992382000,3.5243818359375,0.0032815933227539062,0.011566579341888428,-0.006594587117433548
1717513024002388500,3.534388427734375,-0.006190299987792969,0.006655119359493256,-0.011120129376649857
1717513024012394800,3.544394775390625,0.0033311843872070312,0.011141784489154816,-0.00615522637963295
1717513024022401300,3.5544013671875,-0.006140708923339844,0.006139516830444336,-0.0059819892048835754
1717513024032407800,3.56440771484375,-0.0013284683227539062,0.005931645631790161,0.003500077873468399
1717513024042414300,3.574414306640625,0.0034036636352539062,0.001021459698677063,-0.006011556833982468
1717513024052420900,3.5844208984375,0.0033483505249023438,0.0055098757147789,-0.005845494568347931
1717513024062427400,3.594427490234375,0.008002281188964844,-0.004096135497093201,-0.0009749047458171844
1717513024072434000,3.604433837890625,-0.0015468597412109375,0.0052956268191337585,-0.010311655700206757
1717513024082440400,3.6144404296875,-0.0015201568603515625,0.005116678774356842,-0.0007629990577697754
1717513024092447000,3.624447021484375,-0.0014934539794921875,0.009652025997638702,-0.005294982343912125
1717513024102453500,3.63445361328125,-0.010884284973144531,0.009302668273448944,-0.005251631140708923
1717513024112460000,3.6444599609375,0.0034236907958984375,0.009065873920917511,-0.005106080323457718
1717513024122466600,3.654466552734375,-0.0013408660888671875,0.00412759929895401,-0.0049642473459243774
1717513024132473000,3.66447314453125,-0.0013179779052734375,0.003983430564403534,0.004487857222557068
1717513024142479600,3.674479736328125,0.003414154052734375,0.0037419572472572327,-0.004948999732732773
1717513024152486000,3.68448583984375,0.0033588409423828125,0.003507383167743683,-0.0049168504774570465
1717513024162492400,3.694492431640625,-0.00140380859375,-0.0014286264777183533,-0.009491756558418274
1717513024172499000,3.7044990234375,-0.006087303161621094,0.0031380727887153625,0.00013422220945358276
1717513024182505500,3.71450537109375,-0.0012750625610351562,0.007528327405452728,-0.0046313852071762085
1717513024192512000,3.724511962890625,0.0034570693969726562,0.007243387401103973,0.00020181015133857727
1717513024202518500,3.7345185546875,0.00811004638671875,0.011675514280796051,-0.004462838172912598
1717513024212525000,3.744525146484375,0.0032682418823242188,0.0018047019839286804,0.0002641826868057251
1717513024222531600,3.754531494140625,0.0032167434692382812,0.010932788252830505,-0.004401508718729019
1717513024232538000,3.7645380859375,0.0031642913818359375,0.010594815015792847,0.0003244839608669281
1717513024242544600,3.774544677734375,0.0031156539916992188,0.0006383806467056274,-0.0042399391531944275
1717513024252551200,3.78455126953125,-0.0016422271728515625,0.00978589802980423,-0.0041219741106033325
1717513024262557700,3.7945576171875,0.00780487060546875,0.004655160009860992,0.0008058920502662659
1717513024272564200,3.804564208984375,-0.006447792053222656,0.00431852787733078,-0.003868844360113144
1717513024282570800,3.81457080078125,0.0030794143676757812,0.003987513482570648,-0.0037570707499980927
1717513024292577300,3.824577392578125,0.0030298233032226562,-0.000943310558795929,0.0010614357888698578
1717513024302583600,3.83458349609375,0.0029821395874023438,-0.0011866390705108643,-0.003617566078901291
1717513024312590000,3.844590087890625,0.0029363632202148438,0.003179416060447693,-0.0035099871456623077
1717513024322596600,3.8545966796875,-0.0018186569213867188,-0.0065501779317855835,-0.0033019520342350006
1717513024332603100,3.86460302734375,0.0029239654541015625,-0.002094745635986328,0.0015089623630046844
1717513024342609700,3.874609619140625,0.0028781890869140625,-0.0023188889026641846,0.0015310905873775482
1717513024352616400,3.884616455078125,0.0028333663940429688,0.002169303596019745,0.0016561225056648254
1717513024362623000,3.894623046875,0.0027894973754882812,0.006479047238826752,0.0017780400812625885
1717513024372629500,3.90462939453125,-0.0066699981689453125,-0.0034088343381881714,-0.002913959324359894
1717513024382636000,3.914635986328125,0.0028619766235351562,0.005702845752239227,0.001890469342470169
1717513024392642600,3.924642578125,0.0028181076049804688,0.0099540576338768,-0.002699103206396103
1717513024402649000,3.934649169921875,0.0027751922607421875,-0.004699967801570892,0.002101738005876541
1717513024412655600,3.944655517578125,-0.00197601318359375,-0.0002753734588623047,-0.002594638615846634
1717513024422662100,3.954662109375,-0.0019388198852539062,-0.0007364079356193542,0.002204451709985733
1717513024432669000,3.9646689453125,-0.006610870361328125,-0.0010864734649658203,-0.0024936459958553314
1717513024442675500,3.974675537109375,-0.011204719543457031,-0.0015343502163887024,0.002302691340446472
1717513024452682000,3.984681884765625,-0.0015954971313476562,0.0027342140674591064,-0.002293776720762253
1717513024462688500,3.9946884765625,0.0031452178955078125,-0.007194153964519501,-0.002105042338371277
1717513024472695000,4.004695068359375,-0.006319999694824219,-0.0122484490275383,-0.0020227283239364624
1717513024482701600,4.01470166015625,0.003208160400390625,-0.007801316678524017,-0.0018385201692581177
1717513024492708000,4.0247080078125,-0.006257057189941406,-0.0034282952547073364,-0.001657377928495407
1717513024502715000,4.03471484375,0.007978439331054688,-0.013253957033157349,0.0032293349504470825
1717513024512721400,4.044721435546875,0.00785064697265625,-0.008790463209152222,0.008136782795190811
1717513024522728000,4.05472802734375,0.003017425537109375,-0.013921432197093964,-0.0012655369937419891
1717513024532734500,4.064734375,0.0029735565185546875,-0.004840731620788574,0.003512464463710785
1717513024542741000,4.074740966796875,0.0029306411743164062,-0.010037548840045929,-0.005812790244817734
1717513024552747500,4.08474755859375,-0.0018205642700195312,-0.00102195143699646,-0.0008568353950977325
1717513024562754000,4.094754150390625,0.0029249191284179688,-0.006282418966293335,0.004016518592834473
1717513024572760600,4.104760498046875,-0.0018253326416015625,-0.006850279867649078,-0.0006096735596656799
1717513024582767400,4.114767333984375,-0.0017881393432617188,-0.0025964081287384033,0.00896814838051796
1717513024592774000,4.12477392578125,-0.001750946044921875,-0.007934294641017914,-0.0004491880536079407
1717513024602780400,4.134780517578125,0.0029935836791992188,-0.017788544297218323,0.004416212439537048
1717513024612787000,4.144786865234375,-0.0017576217651367188,-0.008643776178359985,-0.00482085719704628
1717513024622793500,4.15479345703125,-0.0017213821411132812,-0.009068623185157776,0.00011853501200675964
1717513024632800000,4.164800048828125,0.0030221939086914062,-0.009486384689807892,0.004975602030754089
1717513024642806500,4.174806640625,0.002979278564453125,-0.009897582232952118,-0.004271958023309708
1717513024652813300,4.184813232421875,0.00293731689453125,-0.015010535717010498,-0.003948204219341278
1717513024662819800,4.19481982421875,-0.001811981201171875,-0.010723955929279327,0.0009766332805156708
1717513024672826400,4.204826416015625,-0.0017728805541992188,-0.020634613931179047,-0.0034945346415042877
1717513024682833000,4.2148330078125,0.002971649169921875,-0.016151025891304016,0.001422729343175888
1717513024692839400,4.22483935546875,0.0029306411743164062,-0.011845439672470093,0.0015494376420974731
1717513024702846000,4.234845947265625,-0.0018186569213867188,-0.012320220470428467,0.0064859092235565186
1717513024712852500,4.2448525390625,-0.006488800048828125,-0.022204279899597168,0.0019229017198085785
1717513024722859000,4.25485888671875,0.0030450820922851562,-0.0177978053689003,0.00214453786611557
1717513024732865800,4.26486572265625,-0.0017061233520507812,-0.018173374235630035,0.006967801600694656
1717513024742872300,4.274872314453125,0.0030393600463867188,-0.018542684614658356,-0.0023118481040000916
1717513024752878800,4.28487890625,0.0029993057250976562,-0.009591922163963318,0.002688951790332794
1717513024762885400,4.294885498046875,-0.001750946044921875,-0.010104261338710785,0.0028978101909160614
1717513024772892000,4.304891845703125,0.0029973983764648438,-0.020128533244132996,0.003206450492143631
1717513024782898400,4.3148984375,-0.001750946044921875,-0.015859954059123993,-0.0013019256293773651
1717513024792905000,4.324905029296875,0.007704734802246094,-0.025685027241706848,0.008390627801418304
1717513024802911700,4.334911865234375,-0.006539344787597656,-0.01661524921655655,0.003795839846134186
1717513024812918300,4.344918212890625,-0.0017118453979492188,-0.02182241529226303,0.00398622453212738
1717513024822924800,4.3549248046875,-0.006382942199707031,-0.022130928933620453,0.004173431545495987
1717513024832931300,4.364931396484375,-0.006266593933105469,-0.02253756672143936,0.009066108614206314
1717513024842937900,4.374937744140625,0.0032644271850585938,-0.022834137082099915,0.009271908551454544
1717513024852944400,4.3849443359375,-0.0014867782592773438,-0.023332320153713226,0.009474281221628189
1717513024862951000,4.394950927734375,-0.0014505386352539062,-0.023718923330307007,0.00025607645511627197
1717513024872957700,4.404957763671875,-0.001415252685546875,-0.024098634719848633,0.005318548530340195
1717513024882964200,4.414964111328125,-0.0013790130615234375,-0.019867144525051117,0.015003986656665802
1717513024892970800,4.424970703125,0.0033636093139648438,-0.025020092725753784,0.01040220633149147
1717513024902977300,4.434977294921875,0.008028030395507812,-0.025481849908828735,0.005877118557691574
1717513024912983800,4.44498388671875,-0.0015115737915039062,-0.021124042570590973,0.006136048585176468
1717513024922990300,4.454990234375,-0.0014743804931640625,-0.021650739014148712,0.006390657275915146
1717513024932996900,4.464996826171875,-0.0014371871948242188,-0.02216818928718567,0.00664229691028595
1717513024943003400,4.47500341796875,-0.0014009475708007812,-0.027385614812374115,0.011598337441682816
1717513024953010200,4.48501025390625,-0.0013637542724609375,-0.023202620446681976,0.007053285837173462
1717513024963016700,4.4950166015625,-0.0013284683227539062,-0.03311186283826828,0.01200118288397789
1717513024973023200,4.505023193359375,0.0034151077270507812,-0.03343875706195831,0.01215801015496254
1717513024983029800,4.51502978515625,-0.006046295166015625,-0.02905161678791046,0.007706895470619202
1717513024993036300,4.525036376953125,-0.0012235641479492188,-0.02473757416009903,0.007935281842947006
1717513025003042800,4.535042724609375,-0.005896568298339844,-0.030015908181667328,0.012971729040145874
1717513025013049300,4.54504931640625,0.003631591796875,-0.03510298579931259,0.008403755724430084
1717513025023056100,4.55505615234375,0.0035839080810546875,-0.025979503989219666,0.00862051546573639
1717513025033062700,4.565062744140625,-0.0011701583862304688,-0.026528537273406982,0.013542257249355316
1717513025043069200,4.575069091796875,-0.0011377334594726562,-0.026965156197547913,0.004256170243024826
1717513025053075700,4.58507568359375,-0.0011053085327148438,-0.02739448845386505,0.009250640869140625
1717513025063082200,4.595082275390625,-0.0010738372802734375,-0.027816668152809143,0.009453263133764267
1717513025073088800,4.6050888671875,-0.0010423660278320312,-0.037648506462574005,0.009653855115175247
1717513025083095300,4.61509521484375,0.003696441650390625,-0.02848207950592041,0.0051425062119960785
1717513025093101800,4.625101806640625,-0.0010585784912109375,-0.028989389538764954,0.014830786734819412
1717513025103108600,4.635108642578125,-0.001026153564453125,-0.03890494257211685,0.010336421430110931
1717513025113115100,4.645115234375,-0.0009937286376953125,-0.03923856467008591,0.005812332034111023
1717513025123121700,4.65512158203125,-0.0009622573852539062,-0.03485751897096634,0.010885465890169144
1717513025133128200,4.665128173828125,-0.0009298324584960938,-0.030652731657028198,0.01106218621134758
1717513025143134700,4.675134765625,-0.0008974075317382812,-0.031227141618728638,0.011337846517562866
1717513025153141200,4.685141357421875,-0.005576133728027344,-0.03168819844722748,0.00690169632434845
1717513025163147800,4.695147705078125,0.003949165344238281,-0.03685014694929123,0.01195666566491127
1717513025173154600,4.705154541015625,-0.0008106231689453125,-0.032509416341781616,0.016822736710309982
1717513025183161000,4.7151611328125,-0.000782012939453125,-0.037657685577869415,0.016900502145290375
1717513025193167600,4.725167724609375,0.008664131164550781,-0.03330346941947937,0.012370232492685318
1717513025203174100,4.735174072265625,-0.0055904388427734375,-0.03373044729232788,0.012624073773622513
1717513025213180700,4.7451806640625,-0.005480766296386719,-0.03896164149045944,0.008063219487667084
1717513025223187200,4.755187255859375,0.008751869201660156,-0.03458569943904877,0.022514615207910538
1717513025233193700,4.76519384765625,-0.0055027008056640625,-0.04451122134923935,0.013080321252346039
1717513025243200500,4.775200439453125,-0.00539398193359375,-0.0354374498128891,0.013322301208972931
1717513025253207000,4.78520703125,-0.000579833984375,-0.045245490968227386,0.02297886088490486
1717513025263213600,4.795213623046875,-0.0005521774291992188,-0.04086754471063614,0.013640083372592926
1717513025273220000,4.80522021484375,-0.0052337646484375,-0.04127059131860733,0.013875585049390793
1717513025283226400,4.815226318359375,0.004288673400878906,-0.04166746884584427,0.018814314156770706
1717513025293233000,4.82523291015625,0.00423431396484375,-0.02782868593931198,0.01435679942369461
1717513025303239400,4.835239501953125,-0.0005273818969726562,-0.042575396597385406,0.014682181179523468
1717513025313246000,4.845245849609375,-0.0005006790161132812,-0.042951084673404694,0.019606024026870728
1717513025323252500,4.85525244140625,0.00423431396484375,-0.04802853614091873,0.015032056719064713
1717513025333259000,4.865259033203125,0.004181861877441406,-0.04360475391149521,0.019950062036514282
1717513025343265500,4.875265625,0.0041294097900390625,-0.04867132753133774,0.015267103910446167
1717513025353272000,4.88527197265625,0.004078865051269531,-0.04894544929265976,0.015472594648599625
1717513025363278600,4.895278564453125,-0.0053882598876953125,-0.03979724645614624,0.01567612588405609
1717513025373285000,4.90528515625,-0.00057220458984375,-0.0496358796954155,0.01587625965476036
1717513025383291600,4.915291748046875,0.008873939514160156,-0.040579408407211304,0.016176320612430573
1717513025393298200,4.925298095703125,-0.0006732940673828125,-0.045696429908275604,0.01636812835931778
1717513025403304700,4.9353046875,-0.000644683837890625,-0.04601956158876419,0.016556736081838608
1717513025413311200,4.945311279296875,0.0088043212890625,-0.03702337294816971,0.0168454609811306
1717513025423317500,4.9553173828125,-0.0054473876953125,-0.047010935842990875,0.012422282248735428
1717513025433324000,4.965323974609375,-0.005335807800292969,-0.04741542786359787,0.022197112441062927
1717513025443330600,4.97533056640625,-0.0005178451538085938,-0.0383959636092186,0.017683230340480804
1717513025453337000,4.985337158203125,0.004218101501464844,-0.04354932904243469,0.017849914729595184
1717513025463343600,4.995343505859375,0.008875846862792969,-0.04872008413076401,0.022722426801919937
1717513025473350100,5.00535009765625,-0.0006704330444335938,-0.048992820084095,0.02280513569712639
1717513025483356700,5.015356689453125,-0.005349159240722656,-0.03984379023313522,0.018177863210439682
1717513025493363200,5.02536328125,0.004177093505859375,-0.04978490620851517,0.018336307257413864
1717513025503369700,5.03536962890625,-0.0005826950073242188,-0.04533126950263977,0.023303978145122528
1717513025513376300,5.045376220703125,-0.005261421203613281,-0.05036906152963638,0.01877165585756302
1717513025523382800,5.0553828125,-0.005152702331542969,-0.050717540085315704,0.014314871281385422
1717513025533389300,5.065389404296875,-0.0003376007080078125,-0.046352192759513855,0.02866194397211075
1717513025543395800,5.075395751953125,0.004397392272949219,-0.046768203377723694,0.01933017000555992
1717513025553402400,5.08540234375,0.004344940185546875,-0.05188528448343277,0.0195726677775383
1717513025563409000,5.095408935546875,-0.009832382202148438,-0.052208490669727325,0.01970786228775978
1717513025573415400,5.10541552734375,-0.00022983551025390625,-0.047817692160606384,0.02465265616774559
1717513025583422000,5.115421875,-0.0002040863037109375,-0.04820868372917175,0.020097844302654266
1717513025593428500,5.125428466796875,0.004528045654296875,-0.05319847911596298,0.015618946403265
1717513025603435000,5.13543505859375,0.009182929992675781,-0.04879118502140045,0.030152343213558197
1717513025613441500,5.145441650390625,0.00434112548828125,-0.04906269907951355,0.020797278732061386
1717513025623448000,5.155447998046875,-0.00041866302490234375,-0.05885014683008194,0.025723930448293686
1717513025633454600,5.16545458984375,0.004319190979003906,-0.04974333941936493,0.021048013120889664
1717513025643461400,5.17546142578125,0.004267692565917969,-0.05481085926294327,0.021158624440431595
1717513025653468000,5.185468017578125,0.004218101501464844,-0.05979391187429428,0.02137066051363945
1717513025663474400,5.195474365234375,-0.0005388259887695312,-0.05527672916650772,0.021579165011644363
1717513025673481000,5.20548095703125,0.004199981689453125,-0.055543430149555206,0.02649279311299324
1717513025683487500,5.215487548828125,0.008860588073730469,-0.051097095012664795,0.0266159325838089
1717513025693494000,5.225493896484375,-0.0006809234619140625,-0.056245334446430206,0.022028427571058273
1717513025703500500,5.23550048828125,0.004061698913574219,-0.051787301898002625,0.022329241037368774
1717513025713507300,5.24550732421875,-0.0006933212280273438,-0.056820787489414215,0.027127116918563843
1717513025723513900,5.255513916015625,0.008756637573242188,-0.06176973134279251,0.01782410219311714
1717513025733520400,5.265520263671875,0.0039234161376953125,-0.057219646871089935,0.018091730773448944
1717513025743527000,5.27552685546875,-0.0008287429809570312,-0.05745401233434677,0.023063499480485916
1717513025753533400,5.285533447265625,-0.00079345703125,-0.048267267644405365,0.0279524065554142
1717513025763540000,5.2955400390625,-0.0007572174072265625,-0.0534626841545105,0.028051234781742096
1717513025773546500,5.30554638671875,-0.0007228851318359375,-0.06317683309316635,0.028148416429758072
1717513025783553000,5.315552978515625,-0.0006875991821289062,-0.053997963666915894,0.03295256942510605
1717513025793559800,5.325559814453125,0.013472557067871094,-0.05428534746170044,0.028261084109544754
1717513025803566300,5.33556640625,-0.010271072387695312,-0.05467188358306885,0.018937580287456512
1717513025813572900,5.34557275390625,0.004048347473144531,-0.05965728312730789,0.023895248770713806
1717513025823579400,5.355579345703125,0.004004478454589844,-0.05524565279483795,0.02866702899336815
1717513025833586000,5.3655859375,-0.0007486343383789062,-0.06022084504365921,0.019338387995958328
1717513025843592400,5.375592529296875,-0.005420684814453125,-0.05109057575464249,0.024291016161441803
1717513025853599000,5.385598876953125,0.0041103363037109375,-0.060947515070438385,0.019639000296592712
1717513025863605800,5.395605712890625,-0.0006427764892578125,-0.05651438236236572,0.02929357811808586
1717513025873612300,5.4056123046875,0.004100799560546875,-0.06628092378377914,0.02466145157814026
1717513025883618800,5.415618896484375,0.0040569305419921875,-0.0523410364985466,0.029628634452819824
1717513025893625300,5.425625244140625,-0.00069427490234375,-0.0621771439909935,0.02509418874979019
1717513025903632000,5.4356318359375,0.004050254821777344,-0.06243211776018143,0.02524065226316452
1717513025913638400,5.445638427734375,0.0040073394775390625,-0.07210004329681396,0.025384679436683655
1717513025923645000,5.45564501953125,0.0039653778076171875,-0.05806317925453186,0.03023657202720642
1717513025933651500,5.4656513671875,0.0039234161376953125,-0.05367746204137802,0.025590404868125916
1717513025943658200,5.475658203125,-0.000823974609375,-0.05888599157333374,0.021020013839006424
1717513025953664800,5.485664794921875,0.003925323486328125,-0.05459050089120865,0.02604624629020691
1717513025963671300,5.49567138671875,-0.000823974609375,-0.05968053638935089,0.03088545799255371
1717513025973677800,5.505677734375,-0.0007839202880859375,-0.0600803941488266,0.030935414135456085
1717513025983684400,5.515684326171875,-0.0007457733154296875,-0.060369640588760376,0.026380889117717743
1717513025993691000,5.52569091796875,0.004000663757324219,-0.06065407395362854,0.026610873639583588
1717513026003697400,5.535697509765625,-0.0007495880126953125,-0.065642349421978,0.022128436714410782
1717513026013704200,5.5457041015625,-0.0007123947143554688,-0.06113165616989136,0.03173983842134476
1717513026023710700,5.555710693359375,-0.0006742477416992188,-0.07563310861587524,0.022358354181051254
1717513026033717200,5.56571728515625,-0.0006380081176757812,-0.05682943016290665,0.027259014546871185
1717513026043723800,5.575723876953125,0.0041065216064453125,-0.06659140437841415,0.03207629919052124
1717513026053730300,5.585730224609375,0.0040645599365234375,-0.06687537580728531,0.027399510145187378
1717513026063736800,5.59573681640625,-0.0006866455078125,-0.06705135852098465,0.02750927209854126
1717513026073743400,5.605743408203125,0.004058837890625,-0.06722509115934372,0.0324273556470871
1717513026083750100,5.615750244140625,0.0040187835693359375,-0.06749851256608963,0.03255659341812134
1717513026093756700,5.625756591796875,-0.00543975830078125,-0.058246903121471405,0.027871809899806976
1717513026103763200,5.63576318359375,0.004094123840332031,-0.06327526271343231,0.0327855721116066
1717513026113769700,5.645769775390625,0.0040531158447265625,-0.06832309812307358,0.02809697389602661
1717513026123776300,5.6557763671875,-0.0006971359252929688,-0.06376703083515167,0.033005259931087494
1717513026133782800,5.66578271484375,0.0040493011474609375,-0.06870409101247787,0.03312314301729202
1717513026143789300,5.675789306640625,0.008715629577636719,-0.06414167582988739,0.033135801553726196
1717513026153795800,5.6857958984375,0.0038900375366210938,-0.06917578727006912,0.02854292094707489
1717513026163802600,5.695802734375,0.0038509368896484375,-0.06460483372211456,0.023925062268972397
1717513026173809200,5.70580908203125,-0.0008955001831054688,-0.06952796131372452,0.03361149877309799
1717513026183815700,5.715815673828125,0.0038547515869140625,-0.06976301223039627,0.024200577288866043
1717513026193822200,5.725822265625,0.0038156509399414062,-0.06989157944917679,0.03377915918827057
1717513026203828700,5.735828857421875,-0.0009279251098632812,-0.07012056559324265,0.029177308082580566
1717513026213835300,5.745835205078125,-0.0008831024169921875,-0.07034572213888168,0.029464013874530792
1717513026223841800,5.755841796875,0.0038671493530273438,-0.0752750113606453,0.02954115718603134
1717513026233848600,5.7658486328125,-0.0008783340454101562,-0.06128846853971481,0.02961527556180954
1717513026243855000,5.775855224609375,-0.0008382797241210938,-0.07097475975751877,0.029688164591789246
1717513026253861600,5.785861572265625,0.0039119720458984375,-0.06647779047489166,0.029861345887184143
1717513026263868200,5.7958681640625,0.00858306884765625,-0.0761808529496193,0.025324802845716476
1717513026273874700,5.805874755859375,0.0037603378295898438,-0.06688782572746277,0.03509294241666794
1717513026283881200,5.815881103515625,0.0037240982055664062,-0.07177221029996872,0.030365951359272003
1717513026293887700,5.8258876953125,-0.005726814270019531,-0.07196985930204391,0.03052961826324463
1717513026303894300,5.835894287109375,-0.0008945465087890625,-0.07216418534517288,0.03539913892745972
1717513026313901000,5.845901123046875,-0.0008516311645507812,-0.07235599309206009,0.030768543481826782
1717513026323907600,5.855907470703125,-0.0008096694946289062,-0.06312739104032516,0.02621513232588768
1717513026333914000,5.8659140625,-0.0007677078247070312,-0.06817767024040222,0.031156569719314575
1717513026343920600,5.875920654296875,-0.0007276535034179688,-0.07304050773382187,0.03141031414270401
1717513026353927200,5.88592724609375,-0.0053958892822265625,-0.06850835680961609,0.031556569039821625
1717513026363933700,5.89593359375,0.008848190307617188,-0.07346891611814499,0.03170038014650345
1717513026373940200,5.905940185546875,0.004021644592285156,-0.06892961263656616,0.041259001940488815
1717513026383947000,5.915947021484375,-0.0007238388061523438,-0.07398643344640732,0.02711532637476921
1717513026393953500,5.92595361328125,0.004025459289550781,-0.07414709776639938,0.0320417657494545
1717513026403960000,5.9359599609375,0.008695602416992188,-0.06959649920463562,0.03688611090183258
1717513026413966600,5.945966552734375,-0.005545616149902344,-0.06983035802841187,0.03694111853837967
1717513026423973000,5.95597314453125,-0.0007152557373046875,-0.07476890832185745,0.036995209753513336
1717513026433979600,5.965979736328125,0.00403594970703125,-0.07031118869781494,0.03715166449546814
1717513026443986200,5.975986083984375,0.004000663757324219,-0.07063563168048859,0.03259871155023575
1717513026453993000,5.985992919921875,-0.000743865966796875,-0.07095542550086975,0.03272518515586853
1717513026463999500,5.99599951171875,-0.00540924072265625,-0.07597846537828445,0.03755816072225571
1717513026474006000,6.006006103515625,-0.0005817413330078125,-0.07139730453491211,0.032893382012844086
1717513026484012500,6.016012451171875,-0.00054168701171875,-0.07641295343637466,0.03762027621269226
1717513026494019000,6.02601904296875,-0.005211830139160156,-0.08124173432588577,0.03295446187257767
1717513026504025600,6.036025634765625,-0.0003871917724609375,-0.07186423242092133,0.0330749973654747
1717513026514032000,6.0460322265625,-0.0003509521484375,-0.08158066123723984,0.0330902636051178
1717513026524038700,6.05603857421875,-0.00031566619873046875,-0.06748814135789871,0.037918947637081146
1717513026534045400,6.06604541015625,-0.0049877166748046875,-0.07256889343261719,0.03795674443244934
1717513026544052000,6.076052001953125,-0.00016689300537109375,-0.07275310158729553,0.03328530490398407
1717513026554058500,6.08605859375,0.00928497314453125,-0.08245468884706497,0.03350357711315155
1717513026564065000,6.09606494140625,-0.004965782165527344,-0.08247414976358414,0.03842683136463165
1717513026574071600,6.106071533203125,-0.004853248596191406,-0.07778467983007431,0.03385081887245178
1717513026584078000,6.116078125,0.009382247924804688,-0.07788193970918655,0.03395640105009079
1717513026594084600,6.126084716796875,0.009255409240722656,-0.07797757536172867,0.038768842816352844
1717513026604091400,6.13609130859375,0.0044231414794921875,-0.0781748965382576,0.034083880484104156
1717513026614098000,6.146097900390625,-0.0003299713134765625,-0.07355707883834839,0.034185610711574554
1717513026624104400,6.1561044921875,-0.000293731689453125,-0.06911873072385788,0.03899607062339783
1717513026634111000,6.166111083984375,0.004452705383300781,-0.07427555322647095,0.0343073233962059
1717513026644117500,6.176117431640625,-0.005008697509765625,-0.07913991063833237,0.03911393880844116
1717513026654124000,6.1861240234375,-0.000186920166015625,-0.07921458035707474,0.03913183510303497
1717513026664130600,6.196130615234375,0.009263038635253906,-0.07928801327943802,0.03444083034992218
1717513026674137000,6.20613720703125,0.004431724548339844,-0.07475413382053375,0.0392470583319664
1717513026684143900,6.216143798828125,0.004389762878417969,-0.0750051885843277,0.03926274925470352
1717513026694150400,6.226150390625,0.009055137634277344,-0.08456676453351974,0.03456774353981018
1717513026704157000,6.236156982421875,-0.00048065185546875,-0.07523633539676666,0.0347665473818779
1717513026714163500,6.24616357421875,-0.00043964385986328125,-0.08018796890974045,0.039668790996074677
1717513026724170000,6.256169921875,0.004307746887207031,-0.07563987374305725,0.03967747092247009
1717513026734176500,6.266176513671875,-0.005150794982910156,-0.07577292621135712,0.03968600183725357
1717513026744183000,6.27618310546875,-0.000324249267578125,-0.08071484416723251,0.03498763591051102
1717513026754189800,6.28618994140625,-0.000286102294921875,-0.07615794241428375,0.03517758846282959
1717513026764196400,6.2961962890625,0.004460334777832031,-0.0810941681265831,0.03536437451839447
1717513026774203000,6.306202880859375,0.004418373107910156,-0.08123952895402908,0.040256649255752563
1717513026784209400,6.31620947265625,0.004376411437988281,-0.07667388021945953,0.035546936094760895
1717513026794216000,6.3262158203125,0.009044647216796875,-0.08631012588739395,0.03572758287191391
1717513026804222500,6.336222412109375,0.004215240478515625,-0.07684813439846039,0.04051056504249573
1717513026814229000,6.34622900390625,-0.0005321502685546875,-0.07706353068351746,0.04050709307193756
1717513026824235500,6.356235595703125,0.0089263916015625,-0.08198470622301102,0.03589648753404617
1717513026834242300,6.3662421875,0.004099845886230469,-0.08201200515031815,0.04077994078397751
1717513026844248800,6.376248779296875,0.008771896362304688,-0.0774335265159607,0.03606153279542923
1717513026854255400,6.38625537109375,-0.0007600784301757812,-0.07753671705722809,0.03623364120721817
1717513026864262000,6.396261962890625,-0.0007152557373046875,-0.07303362339735031,0.036297738552093506
1717513026874268400,6.406268310546875,0.004034996032714844,-0.08262651413679123,0.041073113679885864
1717513026884275000,6.41627490234375,0.0039997100830078125,-0.07803700864315033,0.04106030613183975
1717513026894281500,6.426281494140625,0.0039653778076171875,-0.07823339104652405,0.031628649681806564
1717513026904288000,6.4362880859375,-0.0007772445678710938,-0.07842649519443512,0.03647997975349426
1717513026914294300,6.446294189453125,0.003975868225097656,-0.07861638069152832,0.04125045984983444
1717513026924300800,6.45630078125,0.003941535949707031,-0.07880231738090515,0.03652612119913101
1717513026934307300,6.466307373046875,0.0039081573486328125,-0.07427733391523361,0.04129583388566971
1717513026944313900,6.47631396484375,0.003875732421875,-0.08395358175039291,0.03667213022708893
1717513026954320400,6.4863203125,0.008551597595214844,-0.07934275269508362,0.036730825901031494
1717513026964327000,6.496326904296875,0.0037317276000976562,-0.07941412925720215,0.041600413620471954
1717513026974333400,6.50633349609375,0.008411407470703125,-0.07958680391311646,0.03697354346513748
1717513026984340000,6.516340087890625,0.008301734924316406,-0.07965412735939026,0.03702723979949951
1717513026994346500,6.526346435546875,-0.001220703125,-0.08924000710248947,0.03718520700931549
1717513027004353000,6.53635302734375,0.0035409927368164062,-0.08454034477472305,0.041945867240428925
1717513027014359600,6.546359619140625,0.0035152435302734375,-0.0846283957362175,0.04191669821739197
1717513027024366000,6.556365966796875,0.0034894943237304688,-0.08000639081001282,0.037282682955265045
1717513027034372600,6.56637255859375,-0.0012426376342773438,-0.08027328550815582,0.0373312383890152
1717513027044379100,6.576379150390625,0.0035190582275390625,-0.08043244481086731,0.032670389860868454
1717513027054388200,6.58638818359375,-0.0012121200561523438,-0.08069264888763428,0.032899294048547745
1717513027064393000,6.59639306640625,-0.0011577606201171875,-0.08555234223604202,0.04254314303398132
1717513027074398000,6.60639794921875,-0.0011053085327148438,-0.08562325686216354,0.03779531270265579
1717513027084402700,6.616402587890625,-0.0010538101196289062,-0.08569218963384628,0.0331285335123539
1717513027094408000,6.626407958984375,0.0037050247192382812,-0.08105060458183289,0.03795863687992096
1717513027104413200,6.6364130859375,-0.0010328292846679688,-0.09061378985643387,0.03328724578022957
1717513027114418700,6.646418701171875,0.0037250518798828125,-0.08107998967170715,0.04763137176632881
1717513027124424700,6.6564248046875,-0.0010118484497070312,-0.08122557401657104,0.04290206730365753
1717513027134431000,6.666430908203125,-0.0056705474853515625,-0.08607736974954605,0.042856939136981964
1717513027144437200,6.676437255859375,-0.0008335113525390625,-0.07672173529863358,0.038209155201911926
1717513027154444300,6.6864443359375,0.003920555114746094,-0.08154457807540894,0.038347452878952026
1717513027164451300,6.696451416015625,-0.000820159912109375,-0.07697316259145737,0.043088801205158234
1717513027174458600,6.706458740234375,0.003935813903808594,-0.08660376816987991,0.04314582794904709
1717513027184466200,6.716466064453125,0.0039043426513671875,-0.08194810152053833,0.038493312895298004
1717513027194474000,6.726473876953125,0.0038728713989257812,-0.09149584919214249,0.03862695395946503
1717513027204481800,6.736481689453125,0.008519172668457031,-0.08538495749235153,0.0379466637969017
1717513027214489600,6.746489501953125,-0.0010404586791992188,-0.08868975192308426,0.03727535158395767
1717513027224497400,6.756497314453125,-0.0010204315185546875,-0.07791607081890106,0.0414266437292099
1717513027234504400,6.76650439453125,0.0037059783935546875,-0.08134280890226364,0.03138434514403343
1717513027244511000,6.776510986328125,0.003643035888671875,-0.07519185543060303,0.04034145921468735
1717513027254517500,6.786517578125,-0.0011234283447265625,-0.07405687868595123,0.03502482920885086
1717513027264524000,6.79652392578125,-0.0011014938354492188,-0.07764851301908493,0.034504882991313934
1717513027274530600,6.806530517578125,0.003627777099609375,-0.07176290452480316,0.03859654814004898
1717513027284537000,6.816537109375,0.0035686492919921875,-0.07057900726795197,0.03801590949296951
1717513027294543600,6.826543701171875,-0.0011987686157226562,-0.07412246614694595,0.03273572772741318
1717513027304550100,6.836550048828125,0.00823974609375,-0.06818868219852448,0.036960095167160034
1717513027314556700,6.846556640625,-0.0013141632080078125,-0.062352828681468964,0.026987578719854355
1717513027324563200,6.856563232421875,0.0034170150756835938,-0.07073908299207687,0.03130633383989334
1717513027334569700,6.86656982421875,0.0033597946166992188,-0.06485883891582489,0.026031900197267532
1717513027344576300,6.876576171875,-0.00140380859375,-0.06378425657749176,0.03978223726153374
1717513027354582800,6.886582763671875,0.003330230712890625,-0.06282997131347656,0.029656313359737396
1717513027364589300,6.89658935546875,-0.0014324188232421875,-0.0665992870926857,0.029218755662441254
1717513027374595600,6.906595703125,0.0033016204833984375,-0.0608883798122406,0.033391229808330536
1717513027384602000,6.91660205078125,-0.0014619827270507812,-0.05516775697469711,0.028077758848667145
1717513027394608600,6.926608642578125,-0.0014371871948242188,-0.06366730481386185,0.02766379714012146
1717513027404615200,6.936615234375,-0.0014133453369140625,-0.06260699778795242,0.027255818247795105
1717513027414621700,6.94662158203125,0.0033206939697265625,-0.056958720088005066,0.0268520787358284
1717513027424628200,6.956628173828125,-0.006150245666503906,-0.05611211061477661,0.03116276115179062
1717513027434634800,6.966634765625,-0.001338958740234375,-0.05988318473100662,0.030693724751472473
1717513027444641300,6.976641357421875,-0.0013151168823242188,-0.06369418650865555,0.020812753587961197
1717513027454647800,6.986647705078125,-0.001293182373046875,-0.05321076512336731,0.03464015945792198
1717513027464654300,6.996654296875,0.008145332336425781,-0.04760945588350296,0.024693183600902557
1717513027474660900,7.006660888671875,0.0033006668090820312,-0.06093468517065048,0.019619643688201904
1717513027484667400,7.01666748046875,-0.0014619827270507812,-0.05059687793254852,0.023943614214658737
1717513027494674000,7.026673828125,-0.006146430969238281,-0.05445266515016556,0.023589234799146652
1717513027504680400,7.036680419921875,0.0033721923828125,-0.04882575571537018,0.02784513682126999
1717513027514686700,7.046686767578125,-0.0013904571533203125,-0.052811868488788605,0.027423854917287827
1717513027524693200,7.056693359375,0.0033426284790039062,-0.05202171951532364,0.026905421167612076
1717513027534699800,7.06669970703125,-0.0014209747314453125,-0.046431660652160645,0.026601292192935944
1717513027544706300,7.076706298828125,-0.0013971328735351562,-0.04564280807971954,0.026196561753749847
1717513027554712800,7.086712890625,-0.001373291015625,-0.040259949862957,0.016278810799121857
1717513027564719400,7.09671923828125,0.0033588409423828125,-0.03957096487283707,0.020857878029346466
1717513027574726000,7.106725830078125,0.0033025741577148438,-0.04360091686248779,0.02054796740412712
1717513027584732700,7.116732666015625,0.0032491683959960938,-0.047665826976299286,0.020242445170879364
1717513027594739200,7.1267392578125,0.0031948089599609375,-0.05626717209815979,0.019941244274377823
1717513027604745700,7.136745849609375,0.0031423568725585938,-0.04128432273864746,0.024352900683879852
1717513027614752300,7.146752197265625,-0.001617431640625,-0.040676429867744446,0.023876912891864777
1717513027624758800,7.1567587890625,0.0031185150146484375,-0.044682301580905914,0.018804259598255157
1717513027634765300,7.166765380859375,-0.0016412734985351562,-0.04401499778032303,0.013815399259328842
1717513027644771800,7.176771728515625,-0.001613616943359375,-0.03383726626634598,0.023137982934713364
1717513027654778600,7.186778564453125,0.007830619812011719,-0.037953928112983704,0.018178600817918777
1717513027664785200,7.19678515625,-0.006424903869628906,-0.04681281000375748,0.017906375229358673
1717513027674791700,7.206791748046875,-0.0016069412231445312,-0.04139726608991623,0.017741098999977112
1717513027684798200,7.216798095703125,0.0031290054321289062,-0.04548820108175278,0.01747441291809082
1717513027694804700,7.2268046875,0.0030765533447265625,-0.03528092801570892,0.01721123978495598
1717513027704811300,7.236811279296875,0.003025054931640625,-0.03936807066202164,0.021661516278982162
1717513027714817800,7.24681787109375,0.0029745101928710938,-0.03867817670106888,0.0166180320084095
1717513027724824600,7.256824462890625,-0.001781463623046875,-0.03339359164237976,0.02117808163166046
1717513027734831000,7.2668310546875,-0.0017518997192382812,-0.032801538705825806,0.016140636056661606
1717513027744837600,7.276837646484375,0.0029878616333007812,-0.04173900932073593,0.01599796488881111
1717513027754844200,7.28684423828125,-0.00177001953125,-0.02698376029729843,0.01575329527258873
1717513027764850700,7.2968505859375,-0.0017404556274414062,-0.031204745173454285,0.02032342553138733
1717513027774857200,7.306857177734375,0.012414932250976562,-0.030749306082725525,0.020004302263259888
1717513027784863700,7.31686376953125,-0.0019178390502929688,-0.030197426676750183,0.019689232110977173
1717513027794870300,7.326870361328125,-0.0018854141235351562,-0.03436317294836044,0.010062813758850098
1717513027804877000,7.336876953125,0.0028543472290039062,-0.029041066765785217,0.014722626656293869
1717513027814883600,7.346883544921875,-0.0019016265869140625,-0.0332242026925087,0.014594752341508865
1717513027824890000,7.35689013671875,0.002838134765625,-0.037336431443691254,0.014365598559379578
1717513027834896600,7.366896728515625,-0.001918792724609375,-0.03196292370557785,0.009325515478849411
1717513027844903200,7.376903076171875,-0.0018873214721679688,-0.026678457856178284,0.01859695091843605
1717513027854909700,7.38690966796875,0.00756072998046875,-0.0308988019824028,0.018191833049058914
1717513027864916200,7.396916259765625,0.0027256011962890625,-0.030339784920215607,0.013186581432819366
1717513027874923000,7.406923095703125,0.0026807785034179688,-0.029893048107624054,0.008263196796178818
1717513027884929500,7.416929443359375,0.012054443359375,-0.024744346737861633,0.01754741743206978
1717513027894936000,7.42693603515625,0.002437591552734375,-0.019681759178638458,0.017256852239370346
1717513027904942600,7.436942626953125,-0.0023107528686523438,-0.02882915735244751,0.0075524188578128815
1717513027914949000,7.44694921875,0.0024356842041015625,-0.028303444385528564,0.012134052813053131
1717513027924955600,7.45695556640625,-0.0023145675659179688,-0.02778635174036026,0.011929318308830261
1717513027934962200,7.466962158203125,0.00243377685546875,-0.027381055057048798,0.016435246914625168
1717513027944968700,7.47696875,-0.007022857666015625,-0.026982448995113373,0.016156192868947983
1717513027954975500,7.4869755859375,0.007221221923828125,-0.021881841123104095,0.011275246739387512
1717513027964982000,7.49698193359375,0.0023908615112304688,-0.030888721346855164,0.011079803109169006
1717513027974988500,7.506988525390625,0.0023517608642578125,-0.025722943246364594,0.015595097094774246
1717513027984995000,7.5169951171875,-0.0023965835571289062,-0.029957138001918793,0.010616887360811234
1717513027995001600,7.527001708984375,0.0023527145385742188,-0.029515430331230164,0.005720663815736771
1717513028005008100,7.537008056640625,0.007022857666015625,-0.02437247335910797,0.010425597429275513
1717513028015014700,7.5470146484375,-0.0025110244750976562,-0.028629109263420105,0.015051264315843582
1717513028025021400,7.557021484375,-0.0024690628051757812,-0.01868901401758194,0.014890436083078384
1717513028035028000,7.567028076171875,0.00228118896484375,-0.013726957142353058,0.01462700217962265
1717513028045034500,7.577034423828125,0.0022420883178710938,-0.02286960929632187,0.014368493109941483
1717513028055041000,7.587041015625,0.0022058486938476562,-0.01783737540245056,0.009508311748504639
1717513028065047600,7.597047607421875,0.0021686553955078125,-0.022306188941001892,0.013939157128334045
1717513028075054000,7.60705419921875,0.0021314620971679688,-0.017180003225803375,0.013690304011106491
1717513028085060600,7.617060546875,0.0020961761474609375,-0.021659664809703827,0.008633263409137726
1717513028095067100,7.627067138671875,0.0020599365234375,-0.016544081270694733,0.008368723094463348
1717513028105074000,7.637073974609375,0.0020265579223632812,-0.01632549613714218,0.008211571723222733
1717513028115080400,7.64708056640625,0.006702423095703125,-0.016110360622406006,0.012765400111675262
1717513028125087000,7.6570869140625,0.0018815994262695312,-0.020504362881183624,0.007824722677469254
1717513028135093500,7.667093505859375,-0.007567405700683594,-0.010698564350605011,0.012384679168462753
1717513028145100000,7.67710009765625,-0.0027313232421875,-0.019993580877780914,0.007451355457305908
1717513028155106600,7.6871064453125,-0.007393836975097656,-0.01971568912267685,0.002704709768295288
1717513028165113000,7.697113037109375,0.0021467208862304688,-0.01944209635257721,0.0072477832436561584
1717513028175120000,7.707119873046875,0.0021114349365234375,-0.019172698259353638,0.011818453669548035
1717513028185126400,7.71712646484375,0.006785392761230469,-0.018907882273197174,0.016415081918239594
1717513028195133000,7.7271328125,-0.0027437210083007812,-0.018647052347660065,0.0019975118339061737
1717513028205139500,7.737139404296875,0.0020112991333007812,-0.01368151605129242,0.006758000701665878
1717513028215146000,7.74714599609375,-0.0027294158935546875,-0.013506390154361725,0.0019199736416339874
1717513028225152500,7.757152587890625,-0.0026826858520507812,-0.022750861942768097,0.006683167070150375
1717513028235159000,7.767158935546875,0.002071380615234375,-0.017715394496917725,0.011365897953510284
1717513028245165800,7.777165771484375,0.011453628540039062,-0.01736810803413391,0.011263258755207062
1717513028255172400,7.78717236328125,-0.0028619766235351562,-0.012421153485774994,0.006452601402997971
1717513028265179000,7.797178955078125,-0.0028133392333984375,-0.012264616787433624,0.0016188696026802063
1717513028275185400,7.807185302734375,0.01136016845703125,-0.01210957020521164,0.011095963418483734
1717513028285192000,7.81719189453125,-0.0029535293579101562,-0.01195642352104187,0.006289303302764893
1717513028295198500,7.827198486328125,0.001804351806640625,-0.016410410404205322,0.0062713176012039185
1717513028305205000,7.837205078125,-0.0029354095458984375,-0.006664089858531952,0.0014405027031898499
1717513028315211500,7.84721142578125,0.006529808044433594,-0.01591385155916214,0.010815896093845367
1717513028325218300,7.85721826171875,0.001712799072265625,-0.006277129054069519,0.005910273641347885
1717513028335224800,7.867224853515625,0.0016832351684570312,-0.006114646792411804,0.015210870653390884
1717513028345231400,7.8772314453125,0.006363868713378906,-0.015371337532997131,0.005625143647193909
1717513028355238000,7.88723779296875,0.006258964538574219,-0.015159137547016144,0.005616094917058945
1717513028365244400,7.897244384765625,-0.007969856262207031,-0.010241188108921051,0.005606837570667267
1717513028375251000,7.9072509765625,0.0015802383422851562,-0.010113127529621124,0.005494002252817154
1717513028385257500,7.917257568359375,0.0015535354614257812,-0.0193004310131073,0.005485814064741135
1717513028395264300,7.92726416015625,0.0015277862548828125,-0.014311470091342926,0.005373861640691757
1717513028405270800,7.937270751953125,0.0015010833740234375,-0.014010310173034668,0.005263101309537888
1717513028415277300,7.94727734375,0.001476287841796875,-0.013816840946674347,0.009862050414085388
1717513028425283800,7.957283935546875,0.0014514923095703125,-0.00891740620136261,0.009674958884716034
1717513028435290400,7.967290283203125,-0.0032815933227539062,-0.008703932166099548,0.014303170144557953
1717513028445297000,7.977296875,-0.00322723388671875,-0.00859677791595459,0.004624277353286743
1717513028455303400,7.987303466796875,0.0015363693237304688,-0.013199523091316223,0.009334862232208252
1717513028465310000,7.99731005859375,0.010928153991699219,-0.008307918906211853,0.009154088795185089
