time,seconds_elapsed,z,y,x
1717512969013134800,0.122134765625,-0.03405189514160156,-0.02555430680513382,-0.008836645632982254
1717512969023145500,0.1321455078125,-0.03064727783203125,-0.01870539039373398,-0.008374631404876709
1717512969033156900,0.142156982421875,-0.02350902557373047,-0.01702115684747696,-0.007943347096443176
1717512969043168800,0.152168701171875,-0.01716327667236328,-0.015522688627243042,0.0010682232677936554
1717512969053181200,0.16218115234375,-0.020265579223632812,-0.014248020946979523,0.004974115639925003
1717512969063193600,0.172193603515625,-0.018820762634277344,-0.004256434738636017,-0.004806049168109894
1717512969073202400,0.182202392578125,-0.022037506103515625,-0.003891170024871826,-0.0004529133439064026
1717512969083209000,0.192208984375,-0.016172409057617188,-0.008055582642555237,-0.005254507064819336
1717512969093215200,0.20221533203125,-0.006211280822753906,-0.011907398700714111,-0.005385264754295349
1717512969103221800,0.2122216796875,-0.010392189025878906,-0.0020194202661514282,-0.0011042505502700806
1717512969113228300,0.222228271484375,-0.009847640991210938,-0.006366796791553497,-0.0060251615941524506
1717512969123234600,0.232234619140625,-0.009358406066894531,-0.010414689779281616,-0.001518942415714264
1717512969133241000,0.242240966796875,-0.008916854858398438,-0.009735852479934692,-0.011013343930244446
1717512969143247600,0.25224755859375,-0.017656326293945312,-0.00910969078540802,-0.006387840956449509
1717512969153254100,0.262254150390625,-0.016892433166503906,-0.008529618382453918,-0.001976603642106056
1717512969163260400,0.272260498046875,0.002162933349609375,-0.012579068541526794,-0.007032349705696106
1717512969173267000,0.282266845703125,-0.007121086120605469,-0.002697497606277466,0.0018935967236757278
1717512969183273500,0.2922734375,-0.011455535888671875,-0.007013298571109772,-0.0033344533294439316
1717512969193280000,0.302280029296875,-0.0064239501953125,-0.001957513391971588,0.0008483473211526871
1717512969203286300,0.312286376953125,-0.010815620422363281,-0.001702047884464264,-0.01358555257320404
1717512969213292800,0.322292724609375,-0.0058231353759765625,-0.0014575645327568054,-0.013669190928339958
1717512969223299300,0.33229931640625,-0.0010051727294921875,-0.0011217445135116577,-0.00903703086078167
1717512969233305600,0.3423056640625,-0.005611419677734375,-0.0007980018854141235,-0.013933833688497543
1717512969243312000,0.35231201171875,-0.005440711975097656,0.0041535645723342896,-0.009414568543434143
1717512969253318700,0.362318603515625,-0.005280494689941406,-0.00032716989517211914,-0.01422516256570816
1717512969263325200,0.3723251953125,-0.0004825592041015625,0.004618436098098755,-0.005067577585577965
1717512969273331500,0.38233154296875,-0.0051250457763671875,-0.004528023302555084,-0.0008276123553514481
1717512969283338000,0.392337890625,0.004323005676269531,0.009853154420852661,-0.006015816703438759
1717512969293344500,0.402344482421875,-0.00045871734619140625,-0.003998748958110809,-0.006410498172044754
1717512969303351000,0.41235107421875,-0.0004520416259765625,0.010485328733921051,-0.002239307388663292
1717512969313357300,0.422357421875,-0.009776115417480469,-0.0034904703497886658,-0.012172458693385124
1717512969323363800,0.43236376953125,-0.0048675537109375,0.006224311888217926,-0.01719656214118004
1717512969333370400,0.442370361328125,-0.00008296966552734375,-0.007549844682216644,-0.01743827573955059
1717512969343376600,0.452376708984375,-0.00008678436279296875,-0.0023029595613479614,-0.013010188937187195
1717512969353383200,0.462383056640625,-0.00009059906005859375,0.002820625901222229,-0.008692435920238495
1717512969363389700,0.4723896484375,-0.0047740936279296875,-0.0015298351645469666,-0.004477502778172493
1717512969373396200,0.482396240234375,0.0000095367431640625,0.003476940095424652,-0.005040513351559639
1717512969383402500,0.492402587890625,0.00000476837158203125,-0.0009920001029968262,-0.010278072208166122
1717512969393409000,0.502408935546875,-0.0046863555908203125,-0.0006797835230827332,-0.010722512379288673
1717512969403415600,0.51241552734375,-0.009282112121582031,-0.00027154386043548584,-0.01574835553765297
1717512969413422000,0.522422119140625,0.00028324127197265625,-0.0045624226331710815,-0.011399928480386734
1717512969423428400,0.532428466796875,0.00027179718017578125,0.0006161332130432129,-0.016527477651834488
1717512969433435000,0.542434814453125,0.00026226043701171875,-0.0036958307027816772,-0.01676461100578308
1717512969443441400,0.55244140625,0.00025177001953125,0.006162673234939575,-0.021802909672260284
1717512969453447700,0.56244775390625,0.000240325927734375,0.001846306025981903,-0.0173580851405859
1717512969463454200,0.5724541015625,-0.0091705322265625,0.007010020315647125,-0.013104783371090889
1717512969473460700,0.582460693359375,-0.009011268615722656,0.007484018802642822,-0.018335964530706406
1717512969483467300,0.59246728515625,-0.004157066345214844,0.008158288896083832,-0.018776852637529373
1717512969493473500,0.6024736328125,-0.004092216491699219,0.008720196783542633,-0.019215954467654228
1717512969503480000,0.61247998046875,0.0006742477416992188,0.0047756582498550415,-0.024462396278977394
1717512969513486600,0.622486572265625,0.005358695983886719,0.015124380588531494,-0.020212655887007713
1717512969523493000,0.6324931640625,0.0005502700805664062,0.015784740447998047,-0.02074718102812767
1717512969533499400,0.64249951171875,-0.004178047180175781,0.011828765273094177,-0.021272769197821617
1717512969543506000,0.652505859375,0.0005903244018554688,0.007938742637634277,-0.021789556369185448
1717512969553512400,0.662512451171875,0.0005712509155273438,0.008718937635421753,-0.0222976952791214
1717512969563518700,0.672518798828125,-0.0041561126708984375,0.014194749295711517,-0.01798548363149166
1717512969573525200,0.682525146484375,0.005320549011230469,0.010161958634853363,-0.023266449570655823
1717512969583531800,0.69253173828125,0.0005130767822265625,0.011008404195308685,-0.018938031047582626
1717512969593538300,0.702538330078125,-0.0042133331298828125,0.016549229621887207,-0.028808390721678734
1717512969603544600,0.712544677734375,-0.0041522979736328125,0.012580513954162598,-0.024388408288359642
1717512969613551000,0.722551025390625,-0.008801460266113281,0.01809515804052353,-0.020145289599895477
1717512969623557600,0.7325576171875,0.0007543563842773438,0.013997465372085571,-0.030098631978034973
1717512969633564200,0.742564208984375,0.0054416656494140625,0.014676675200462341,-0.021051663905382156
1717512969643570400,0.7525703125,-0.008784294128417969,0.010739266872406006,-0.026177991181612015
1717512969653577000,0.762576904296875,0.0007696151733398438,0.020993269979953766,-0.031218821182847023
1717512969663583500,0.77258349609375,0.0054569244384765625,0.021555952727794647,-0.0314670093357563
1717512969673589800,0.78258984375,0.0006475448608398438,0.017503924667835236,-0.02710568904876709
1717512969683596300,0.79259619140625,0.0006275177001953125,0.022936657071113586,-0.022817015647888184
1717512969693602800,0.802602783203125,0.0006093978881835938,0.014049828052520752,-0.023205138742923737
1717512969703609300,0.812609375,-0.0041179656982421875,0.014831572771072388,-0.028295354917645454
1717512969713615600,0.82261572265625,-0.00876617431640625,0.020308896899223328,-0.02869533747434616
1717512969723622100,0.8326220703125,0.005496978759765625,0.020986348390579224,-0.02908860333263874
1717512969733628700,0.842628662109375,0.0006895065307617188,0.026257894933223724,-0.038789235055446625
1717512969743635200,0.85263525390625,-0.004038810729980469,0.017419137060642242,-0.02959625795483589
1717512969753641500,0.862641357421875,0.000728607177734375,0.022853396832942963,-0.02045396715402603
1717512969763648000,0.87264794921875,0.0007076263427734375,0.023488588631153107,-0.030400902032852173
1717512969773654500,0.882654541015625,0.0006875991821289062,0.028821751475334167,-0.030765578150749207
1717512969783661000,0.8926611328125,0.0006685256958007812,0.024545587599277496,-0.03562625125050545
1717512969793667300,0.902667236328125,-0.008767127990722656,0.025049373507499695,-0.03579980507493019
1717512969803673900,0.912673828125,0.0007886886596679688,0.02564787119626999,-0.026657944545149803
1717512969813680400,0.922680419921875,-0.003939628601074219,0.030841834843158722,-0.03169023618102074
1717512969823686700,0.932686767578125,0.005536079406738281,0.021926693618297577,-0.032033275812864304
1717512969833693200,0.942693115234375,0.005436897277832031,0.017765522003173828,-0.022953378036618233
1717512969843699700,0.95269970703125,0.0006322860717773438,0.03240487724542618,-0.02815058082342148
1717512969853706200,0.962706298828125,0.0053234100341796875,0.028069116175174713,-0.03315790370106697
1717512969863712500,0.97271240234375,0.005228996276855469,0.037828199565410614,-0.02876780554652214
1717512969873719000,0.982718994140625,-0.0042819976806640625,0.0286935493350029,-0.029055524617433548
1717512969883725600,0.9927255859375,0.005200386047363281,0.03383687138557434,-0.029443057253956795
1717512969893732000,1.002732177734375,0.00039958953857421875,0.03408268839120865,-0.029720181599259377
1717512969903738400,1.01273828125,0.0003871917724609375,0.034324392676353455,-0.034701962023973465
1717512969913745000,1.022744873046875,0.0050830841064453125,0.029956765472888947,-0.039703257381916046
1717512969923751400,1.03275146484375,0.0002841949462890625,0.03497590124607086,-0.03510074317455292
1717512969933757700,1.0427578125,0.00498199462890625,0.03520279377698898,-0.03528352081775665
1717512969943764200,1.05276416015625,0.004893302917480469,0.03542592376470566,-0.03085790015757084
1717512969953770800,1.062770751953125,-0.004611015319824219,0.026228167116642,-0.03581998124718666
1717512969963777300,1.07277734375,0.004876136779785156,0.03612133115530014,-0.035991400480270386
1717512969973783600,1.082783447265625,-0.004628181457519531,0.036329202353954315,-0.03615928813815117
1717512969983790000,1.0927900390625,0.00015163421630859375,0.027116410434246063,-0.04113687202334404
1717512969993796600,1.102796630859375,0.0001430511474609375,0.0369948074221611,-0.04132287949323654
1717512970003803100,1.11280322265625,0.0001354217529296875,0.03729139268398285,-0.036693260073661804
1717512970013809400,1.122809326171875,0.004836082458496094,0.032771192491054535,-0.036952633410692215
1717512970023816000,1.13281591796875,0.00004100799560546875,0.03774353861808777,-0.037105076014995575
1717512970033822500,1.142822509765625,0.004744529724121094,0.04252977669239044,-0.04206617549061775
1717512970043828700,1.152828857421875,-0.00004863739013671875,0.033213719725608826,-0.03281879797577858
1717512970053835300,1.162835205078125,-0.009469985961914062,0.03817874193191528,-0.03303947299718857
1717512970063841800,1.172841796875,0.00010013580322265625,0.03364381566643715,-0.033256445080041885
1717512970073848300,1.182848388671875,0.0000934600830078125,0.029184490442276,-0.0334697887301445
1717512970083854600,1.1928544921875,0.00008678436279296875,0.029404837638139725,-0.03849141672253609
1717512970093861000,1.202861083984375,0.00008106231689453125,0.03903871402144432,-0.043429337441921234
1717512970103867600,1.21286767578125,0.00007534027099609375,0.039198096841573715,-0.03866124898195267
1717512970113874200,1.222874267578125,0.0047779083251953125,0.034646227955818176,-0.03878447413444519
1717512970123880400,1.23288037109375,0.0046939849853515625,0.04419278725981712,-0.0343003049492836
1717512970133887000,1.242886962890625,-0.0048065185546875,0.034745875746011734,-0.039308708161115646
1717512970143893500,1.2528935546875,-0.00002288818359375,0.03958222270011902,-0.034816429018974304
1717512970153900000,1.262900146484375,0.0046825408935546875,0.03962937742471695,-0.03971295803785324
1717512970163906600,1.272906494140625,-0.0048160552978515625,0.03496713563799858,-0.0398186519742012
1717512970173913000,1.2829130859375,-0.000030517578125,0.039799802005290985,-0.0399225689470768
1717512970183919600,1.292919677734375,-0.00003337860107421875,0.030426137149333954,-0.040024757385253906
1717512970193926100,1.302926025390625,0.004672050476074219,0.030625872313976288,-0.035416003316640854
1717512970203932700,1.3129326171875,-0.000118255615234375,0.035427652299404144,-0.03088468685746193
1717512970213939200,1.322939208984375,-0.0001201629638671875,0.035440824925899506,-0.04055468738079071
1717512970223945700,1.33294580078125,-0.0001220703125,0.030745193362236023,-0.04064632207155228
1717512970233952300,1.3429521484375,0.00458526611328125,0.040253642946481705,-0.04544564709067345
1717512970243958800,1.352958740234375,0.004505157470703125,0.040186431258916855,-0.03603920340538025
1717512970253965300,1.36296533203125,-0.00028228759765625,0.03541171923279762,-0.040914714336395264
1717512970263971600,1.3729716796875,-0.00028133392333984375,0.03071659803390503,-0.036188505589962006
1717512970273978000,1.38297802734375,-0.0002803802490234375,0.03551695868372917,-0.036353543400764465
1717512970283984600,1.392984619140625,0.004428863525390625,0.03552868589758873,-0.04582914337515831
1717512970293991200,1.4029912109375,-0.0003566741943359375,0.04014556109905243,-0.041124291718006134
1717512970303997700,1.412997802734375,-0.000354766845703125,0.03537159040570259,-0.04120708629488945
1717512970314004200,1.423004150390625,-0.00035190582275390625,0.03528248518705368,-0.03637275472283363
1717512970324010800,1.4330107421875,0.004360198974609375,0.030486274510622025,-0.04113945737481117
1717512970334017300,1.443017333984375,-0.000423431396484375,0.035187188535928726,-0.03651278465986252
1717512970344023800,1.45302392578125,0.0042896270751953125,0.03980977088212967,-0.03656856715679169
1717512970354030300,1.4630302734375,-0.005202293395996094,0.03964671492576599,-0.04133203253149986
1717512970364036900,1.473036865234375,0.009007453918457031,0.034777771681547165,-0.03659890964627266
1717512970374043400,1.48304345703125,0.004145622253417969,0.039407189935445786,-0.041361887007951736
1717512970384050000,1.4930498046875,0.0040740966796875,0.03925081342458725,-0.04143952205777168
1717512970394056400,1.503056396484375,0.0040035247802734375,0.04380573332309723,-0.03670528531074524
1717512970404063000,1.51306298828125,0.0039348602294921875,0.03876423463225365,-0.041569799184799194
1717512970414069200,1.5230693359375,-0.005550384521484375,0.03391003981232643,-0.036832794547080994
1717512970424075800,1.53307568359375,-0.000751495361328125,0.029033485800027847,-0.041591934859752655
1717512970434082300,1.543082275390625,0.008676528930664062,0.0383639894425869,-0.041563160717487335
1717512970444088800,1.5530888671875,0.0038204193115234375,0.02880791202187538,-0.04143226891756058
1717512970454095400,1.563095458984375,-0.00095367431640625,0.04285077750682831,-0.04140618070960045
1717512970464102000,1.573101806640625,0.0037689208984375,0.033013373613357544,-0.031964004039764404
1717512970474108400,1.5831083984375,0.0037031173706054688,0.03767222911119461,-0.041512951254844666
1717512970484115000,1.593114990234375,-0.0010690689086914062,0.04215016961097717,-0.04148556664586067
1717512970494121500,1.60312158203125,0.0036554336547851562,0.032427676022052765,-0.046167246997356415
1717512970504127700,1.613127685546875,0.0035924911499023438,0.036993011832237244,-0.04135372117161751
1717512970514134300,1.62313427734375,-0.0011777877807617188,0.04137895256280899,-0.03651650249958038
1717512970524140800,1.633140869140625,-0.0011606216430664062,0.03166930377483368,-0.03646918758749962
1717512970534147300,1.643147216796875,0.0035657882690429688,0.036144010722637177,-0.045839861035346985
1717512970544153600,1.653153564453125,-0.0012054443359375,0.0359388068318367,-0.03632325679063797
1717512970554160000,1.66316015625,-0.0011882781982421875,0.031028375029563904,-0.036175258457660675
1717512970564166700,1.673166748046875,0.0035381317138671875,0.035513751208782196,-0.04084227234125137
1717512970574173200,1.683173095703125,0.0034761428833007812,0.030610427260398865,-0.03130572661757469
1717512970584179500,1.693179443359375,0.0034160614013671875,0.025685571134090424,-0.04547112062573433
1717512970594186000,1.70318603515625,-0.0013513565063476562,0.03496856987476349,-0.03585745021700859
1717512970604192500,1.713192626953125,-0.006039619445800781,0.034679628908634186,-0.03582053631544113
1717512970614198800,1.72319873046875,-0.001232147216796875,0.029686905443668365,-0.040492843836545944
1717512970624205300,1.733205322265625,0.0034952163696289062,0.03890317678451538,-0.03567008674144745
1717512970634211800,1.7432119140625,0.0034351348876953125,0.029131479561328888,-0.035637017339468
1717512970644218400,1.75321826171875,0.003376007080078125,0.02423124760389328,-0.04031311720609665
1717512970654224600,1.763224609375,0.0033178329467773438,0.028829842805862427,-0.04491059109568596
1717512970664231200,1.773231201171875,0.0032596588134765625,0.03345509618520737,-0.044723547995090485
1717512970674237700,1.78323779296875,-0.0015048980712890625,0.02848277986049652,-0.039727769792079926
1717512970684244200,1.793244140625,-0.0014820098876953125,0.03301049768924713,-0.039626434445381165
1717512970694250500,1.80325048828125,-0.006167411804199219,0.023336976766586304,-0.039527494460344315
1717512970704257000,1.813257080078125,0.0033502578735351562,0.02324187010526657,-0.04413880407810211
1717512970714263600,1.823263671875,-0.001415252685546875,0.03246225416660309,-0.04396466910839081
1717512970724269800,1.833269775390625,-0.0013933181762695312,0.032215043902397156,-0.0437934547662735
1717512970734276400,1.8432763671875,0.003337860107421875,0.027160048484802246,-0.043521128594875336
1717512970744283000,1.853282958984375,-0.0014286041259765625,0.03170977532863617,-0.03854547068476677
1717512970754289400,1.863289306640625,-0.0014066696166992188,0.026766471564769745,-0.03365274518728256
1717512970764295700,1.873295654296875,-0.0013837814331054688,0.031219482421875,-0.04296737164258957
1717512970774302200,1.88330224609375,-0.001361846923828125,0.02618105709552765,-0.03810497373342514
1717512970784308700,1.893308837890625,-0.0013399124145507812,0.02593519538640976,-0.038030777126550674
1717512970794315300,1.903315185546875,-0.0060272216796875,0.020984835922718048,-0.03785455599427223
1717512970804321500,1.913321533203125,0.0034894943237304688,0.034951359033584595,-0.042389869689941406
1717512970814328000,1.923328125,-0.001277923583984375,0.02043350785970688,-0.03272382169961929
1717512970824334600,1.93333447265625,0.008159637451171875,0.02499200403690338,-0.03263607993721962
1717512970834340900,1.9433408203125,0.0033140182495117188,0.029371261596679688,-0.032549817115068436
1717512970844347400,1.953347412109375,-0.0014505386352539062,0.029072202742099762,-0.03256827965378761
1717512970854354000,1.96335400390625,-0.0061359405517578125,0.028674855828285217,-0.03729505091905594
1717512970864360400,1.9733603515625,-0.00603485107421875,0.02357552945613861,-0.037130434066057205
1717512970874366700,1.98336669921875,0.008190155029296875,0.027978383004665375,-0.03236398845911026
1717512970884373200,1.993373291015625,-0.0013647079467773438,0.02289065718650818,-0.03228233754634857
1717512970894379800,2.0033798828125,0.0033655166625976562,0.027304917573928833,-0.032202817499637604
1717512970904386300,2.01338623046875,0.0033082962036132812,0.022228404879570007,-0.03683248162269592
1717512970914392600,2.023392578125,-0.0014562606811523438,0.026653699576854706,-0.041384998708963394
1717512970924399000,2.033399169921875,0.0032758712768554688,0.02158801257610321,-0.04115382581949234
1717512970934405600,2.043405517578125,-0.0014896392822265625,0.030835822224617004,-0.03150855749845505
1717512970944412000,2.053411865234375,0.00324249267578125,0.02570042759180069,-0.031337980180978775
1717512970954418400,2.06341845703125,-0.0015211105346679688,0.02065061777830124,-0.031376805156469345
1717512970964425000,2.073425048828125,0.00321197509765625,0.02510218322277069,-0.031311724334955215
1717512970974431500,2.083431396484375,0.0031576156616210938,0.02477094531059265,-0.04066493734717369
1717512970984437800,2.093437744140625,-0.0016040802001953125,0.019736602902412415,-0.035737283527851105
1717512970994444300,2.1034443359375,-0.0015773773193359375,0.024100102484226227,-0.0354962982237339
1717512971004450800,2.113450927734375,-0.0015506744384765625,0.02368227392435074,-0.030654020607471466
1717512971014457300,2.123457275390625,0.0031833648681640625,0.01856277883052826,-0.030601866543293
1717512971024463600,2.133463623046875,-0.010995864868164062,0.01823723316192627,-0.025737928226590157
1717512971034470100,2.14347021484375,-0.0013952255249023438,0.017917081713676453,-0.035081662237644196
1717512971044476700,2.1534765625,-0.00608062744140625,0.017602279782295227,-0.030143078416585922
1717512971054483000,2.16348291015625,-0.001270294189453125,0.022001318633556366,-0.03470401465892792
1717512971064489500,2.173489501953125,-0.005957603454589844,0.016909830272197723,-0.03458361700177193
1717512971074496000,2.18349609375,-0.0011501312255859375,0.016611792147159576,-0.034465234726667404
1717512971084502500,2.19350244140625,-0.0011310577392578125,0.025735951960086823,-0.02953614667057991
1717512971094508800,2.2035087890625,-0.0011119842529296875,0.015873610973358154,-0.029398653656244278
1717512971104515300,2.213515380859375,0.0036153793334960938,0.015592828392982483,-0.033972062170505524
1717512971114521900,2.22352197265625,-0.005862236022949219,0.015316754579544067,-0.03857169300317764
1717512971124528400,2.2335283203125,-0.005764961242675781,0.0197538360953331,-0.038386907428503036
1717512971134534700,2.24353466796875,-0.00566864013671875,0.014699749648571014,-0.033290084451436996
1717512971144541200,2.253541259765625,-0.005574226379394531,0.01443849503993988,-0.03319334611296654
1717512971154547700,2.263547607421875,-0.0007724761962890625,0.01418159157037735,-0.03309822827577591
1717512971164554000,2.273553955078125,-0.0054683685302734375,0.018637560307979584,-0.033004701137542725
1717512971174560500,2.283560546875,-0.0006685256958007812,0.01831066608428955,-0.03291274607181549
1717512971184567000,2.293567138671875,-0.010073661804199219,0.013177342712879181,-0.03271907567977905
1717512971194573600,2.303573486328125,-0.00048732757568359375,0.012838169932365417,-0.0278200451284647
1717512971204580000,2.313580078125,-0.0004787445068359375,0.012607961893081665,-0.03723086789250374
1717512971214586600,2.323586669921875,-0.0004711151123046875,0.01238153874874115,-0.03706852346658707
1717512971224593200,2.33359326171875,0.004245758056640625,0.0074503421783447266,-0.03680476173758507
1717512971234599700,2.343599609375,0.008884429931640625,0.016623787581920624,-0.031940944492816925
1717512971244606200,2.353606201171875,0.004027366638183594,0.006913274526596069,-0.036574527621269226
1717512971254612500,2.363612548828125,-0.0007476806640625,0.001969866454601288,-0.03631991147994995
1717512971264619000,2.373618896484375,0.0039730072021484375,0.011337891221046448,-0.03136094659566879
1717512971274625500,2.38362548828125,-0.00080108642578125,0.01102931797504425,-0.035901837050914764
1717512971284632000,2.393632080078125,0.008630752563476562,0.010725937783718109,-0.03555431589484215
1717512971294638600,2.403638671875,0.0037784576416015625,0.015239402651786804,-0.030608154833316803
1717512971304645000,2.41364501953125,-0.0057010650634765625,0.014865770936012268,-0.030453041195869446
1717512971314651600,2.423651611328125,0.008521080017089844,0.009789764881134033,-0.03040379099547863
1717512971324658200,2.433658203125,-0.0010385513305664062,0.014318890869617462,-0.03506307676434517
1717512971334664700,2.443664794921875,-0.0010204315185546875,0.009251989424228668,-0.03012516163289547
1717512971344671200,2.453671142578125,-0.0010023117065429688,0.008978202939033508,-0.030080512166023254
1717512971354677800,2.463677734375,-0.010402679443359375,0.013520769774913788,-0.02993425726890564
1717512971364684300,2.473684326171875,-0.005519866943359375,0.003758564591407776,-0.02037324756383896
1717512971374690800,2.48369091796875,-0.0007181167602539062,0.012993447482585907,-0.029909247532486916
1717512971384697300,2.493697265625,-0.0007047653198242188,0.012657217681407928,-0.03437120094895363
1717512971394703600,2.50370361328125,-0.0053997039794921875,0.0075147151947021484,-0.024736277759075165
1717512971404710100,2.513710205078125,-0.005309104919433594,0.0025611892342567444,-0.024679142981767654
1717512971414716700,2.523716552734375,-0.00051116943359375,0.01652468740940094,-0.02933064103126526
1717512971424723200,2.53372314453125,0.004206657409667969,0.006712377071380615,-0.01967649534344673
1717512971434729700,2.543729736328125,-0.0005712509155273438,0.0017722100019454956,-0.02441231906414032
1717512971444736300,2.553736328125,-0.005268096923828125,0.01564548909664154,-0.024257361888885498
1717512971454742800,2.56374267578125,0.004238128662109375,0.010556511580944061,-0.028915930539369583
1717512971464749300,2.573749267578125,0.004169464111328125,0.0007404983043670654,-0.024079669266939163
1717512971474755800,2.583755859375,0.008809089660644531,0.0006085336208343506,-0.024032622575759888
1717512971484762400,2.593762451171875,0.003954887390136719,0.005187265574932098,-0.02388404682278633
1717512971494769000,2.603768798828125,-0.0008172988891601562,0.009586416184902191,-0.02384122461080551
1717512971504775400,2.613775390625,-0.0008029937744140625,0.00930691510438919,-0.028404468670487404
1717512971514782000,2.623781982421875,0.0039196014404296875,0.0043234676122665405,-0.02828633412718773
1717512971524788500,2.63378857421875,0.0038547515869140625,0.00413176417350769,-0.023460622876882553
1717512971534795000,2.643794921875,0.00379180908203125,0.00865185260772705,-0.028132550418376923
1717512971544801300,2.65380126953125,0.008439064025878906,0.012993231415748596,-0.02791571617126465
1717512971554807800,2.663807861328125,0.0035915374755859375,0.007845140993595123,-0.02770155481994152
1717512971564814300,2.673814453125,-0.005883216857910156,0.007491447031497955,-0.027490977197885513
1717512971574820900,2.68382080078125,-0.00107574462890625,0.0072467997670173645,-0.022576287388801575
1717512971584827400,2.693827392578125,-0.005764961242675781,0.0021944791078567505,-0.02715974673628807
1717512971594834000,2.703833984375,-0.0103759765625,0.00664355605840683,-0.022249622270464897
1717512971604840400,2.71384033203125,-0.0054931640625,0.0017044395208358765,-0.022130917757749557
1717512971614847000,2.723846923828125,-0.0053997039794921875,0.006161682307720184,-0.026825077831745148
1717512971624853500,2.733853515625,-0.000598907470703125,0.0011273175477981567,-0.021921534091234207
1717512971634859800,2.74385986328125,-0.00058746337890625,0.005594171583652496,-0.021807335317134857
1717512971644866300,2.7538662109375,-0.000576019287109375,-0.004139222204685211,-0.021695051342248917
1717512971654872800,2.763872802734375,-0.0005645751953125,0.0004153922200202942,-0.02629324421286583
1717512971664879000,2.773879150390625,-0.0005521774291992188,0.004790835082530975,-0.026106208562850952
1717512971674885600,2.7838857421875,-0.005249977111816406,-0.00022070854902267456,-0.02121470496058464
1717512971684892200,2.79389208984375,-0.0004520416259765625,0.0042685940861701965,-0.021215587854385376
1717512971694898700,2.803898681640625,0.004265785217285156,0.003974482417106628,-0.025821806862950325
1717512971704905000,2.813905029296875,-0.009928703308105469,0.003581993281841278,-0.025642666965723038
1717512971714911500,2.823911376953125,-0.00034332275390625,0.003196045756340027,-0.030175119638442993
1717512971724918000,2.83391796875,-0.00033473968505859375,0.007525123655796051,-0.025214850902557373
1717512971734924500,2.843924560546875,-0.0003261566162109375,-0.0023437514901161194,-0.02044052444398403
1717512971744930800,2.853930908203125,0.004389762878417969,-0.002527691423892975,-0.025059718638658524
1717512971754937300,2.863937255859375,0.0043182373046875,-0.007417164742946625,-0.02489333227276802
1717512971764944000,2.87394384765625,-0.00046062469482421875,-0.0028079599142074585,-0.024832984432578087
1717512971774950100,2.8839501953125,-0.005158424377441406,0.001621156930923462,-0.01996178925037384
1717512971784956700,2.893956787109375,-0.00036144256591796875,-0.0034407377243041992,-0.029297586530447006
1717512971794963200,2.903963134765625,-0.0003528594970703125,-0.0037096738815307617,-0.014934808947145939
1717512971804969700,2.9139697265625,-0.00034427642822265625,0.000734470784664154,-0.019645806401968002
1717512971814976000,2.92397607421875,-0.005043983459472656,0.000395946204662323,-0.0242783036082983
1717512971824982500,2.933982421875,-0.0049571990966796875,-0.004645399749279022,-0.01941535249352455
1717512971834989000,2.943989013671875,0.0045452117919921875,-0.004894256591796875,-0.01934310607612133
1717512971844995600,2.95399560546875,-0.00023746490478515625,-0.0003269761800765991,-0.02879147231578827
1717512971855001900,2.964001953125,-0.0002307891845703125,-0.00535641610622406,-0.023957636207342148
1717512971865008400,2.97400830078125,0.0044841766357421875,-0.005593441426753998,-0.014392513781785965
1717512971875015000,2.984014892578125,0.004412651062011719,-0.0011179223656654358,-0.023821208626031876
1717512971885021200,2.994021240234375,0.004342079162597656,-0.0014255940914154053,-0.018966980278491974
1717512971895027700,3.00402783203125,-0.005145072937011719,-0.006436742842197418,-0.023507602512836456
1717512971905034200,3.0140341796875,-0.0050563812255859375,-0.00665593147277832,-0.023368284106254578
1717512971915040800,3.024040771484375,-0.00026035308837890625,-0.011579908430576324,-0.023333478718996048
1717512971925047000,3.034047119140625,-0.004961967468261719,-0.002296037971973419,-0.02319600246846676
1717512971935053600,3.044053466796875,-0.004876136779785156,-0.007292687892913818,-0.03247801586985588
1717512971945060000,3.05406005859375,0.009334564208984375,-0.007600724697113037,-0.022770952433347702
1717512971955066600,3.064066650390625,0.0044727325439453125,-0.012508980929851532,-0.02264287695288658
1717512971965073000,3.074072998046875,-0.00030803680419921875,-0.007918089628219604,-0.017807258293032646
1717512971975079400,3.084079345703125,0.009116172790527344,-0.003300614655017853,-0.013053325936198235
1717512971985086000,3.0940859375,-0.00045013427734375,-0.008280560374259949,-0.027213023975491524
1717512971995092200,3.10409228515625,-0.00043964385986328125,-0.0037601441144943237,-0.026906592771410942
1717512972005098800,3.1140986328125,0.004279136657714844,-0.008732274174690247,-0.012582743540406227
1717512972015105300,3.124105224609375,-0.0004978179931640625,-0.008913107216358185,-0.02204171195626259
1717512972025111800,3.13411181640625,-0.000484466552734375,-0.004485420882701874,-0.01700962521135807
1717512972035118000,3.1441181640625,-0.0004730224609375,-0.009445637464523315,-0.016771113499999046
1717512972045124600,3.15412451171875,-0.0051708221435546875,-0.009614594280719757,-0.021348441019654274
1717512972055131100,3.164131103515625,-0.005082130432128906,-0.005072139203548431,-0.02114088460803032
1717512972065137700,3.1741376953125,-0.000286102294921875,-0.005313992500305176,-0.020936792716383934
1717512972075144000,3.18414404296875,-0.004986763000488281,-0.010260246694087982,-0.016129663214087486
1717512972085150500,3.194150390625,-0.0001926422119140625,-0.005706869065761566,-0.02071659453213215
1717512972095157000,3.204156982421875,0.00452423095703125,-0.01075001060962677,-0.025228191167116165
1717512972105163300,3.214163330078125,0.009161949157714844,-0.006291918456554413,-0.015538813546299934
1717512972115169800,3.224169677734375,0.0043048858642578125,-0.006616555154323578,-0.02013561502099037
1717512972125176300,3.23417626953125,-0.00047206878662109375,-0.011644572019577026,-0.024863451719284058
1717512972135182800,3.244182861328125,-0.005168914794921875,-0.011880189180374146,-0.024700641632080078
1717512972145189000,3.254189208984375,-0.000370025634765625,-0.01671721041202545,-0.01972869411110878
1717512972155195600,3.264195556640625,-0.005069732666015625,-0.016764841973781586,-0.014941742643713951
1717512972165202200,3.2742021484375,-0.00027179718017578125,-0.007497742772102356,-0.019548514857888222
1717512972175208700,3.284208740234375,0.004445075988769531,-0.01711641252040863,-0.009953850880265236
1717512972185215200,3.29421533203125,-0.00033473968505859375,-0.012448802590370178,-0.019455615431070328
1717512972195221800,3.3042216796875,0.004384040832519531,-0.007962241768836975,-0.019278567284345627
1717512972205228300,3.314228271484375,-0.005103111267089844,-0.003447405993938446,-0.019208874553442
1717512972215234800,3.32423486328125,-0.00030517578125,-0.008528076112270355,-0.019035950303077698
1717512972225241300,3.334241455078125,0.009121894836425781,-0.008815474808216095,-0.014157315716147423
1717512972235247900,3.344247802734375,0.004265785217285156,-0.01851547509431839,-0.018881605938076973
1717512972245254400,3.35425439453125,-0.0005092620849609375,-0.013927832245826721,-0.01871415600180626
1717512972255261000,3.364260986328125,-0.0004968643188476562,-0.00931338220834732,-0.018549500033259392
1717512972265267500,3.374267333984375,0.008931159973144531,-0.009484440088272095,-0.018490854650735855
1717512972275273700,3.384273681640625,-0.0053386688232421875,-0.014464519917964935,-0.018329933285713196
1717512972285280300,3.3942802734375,-0.009953498840332031,-0.005236007273197174,-0.0181728508323431
1717512972295286800,3.404286865234375,-0.00036525726318359375,-0.01509874314069748,-0.0180172361433506
1717512972305293300,3.414293212890625,-0.000354766845703125,-0.010568052530288696,-0.017864221706986427
1717512972315299800,3.4242998046875,-0.00034427642822265625,-0.020238667726516724,-0.022422360256314278
1717512972325306400,3.434306396484375,-0.00033473968505859375,-0.020227663218975067,-0.017487337812781334
1717512972335313000,3.44431298828125,0.004384040832519531,-0.015611506998538971,-0.008029226213693619
1717512972345319400,3.4543193359375,-0.005101203918457031,-0.015780873596668243,-0.017563145607709885
1717512972355326000,3.464325927734375,-0.0003032684326171875,-0.025364607572555542,-0.012812374159693718
1717512972365332500,3.47433251953125,-0.000293731689453125,-0.011245638132095337,-0.017351461574435234
1717512972375339000,3.484339111328125,0.004424095153808594,-0.02090497314929962,-0.01720956154167652
1717512972385345500,3.494345458984375,-0.005062103271484375,-0.016277536749839783,-0.012258172035217285
1717512972395352000,3.50435205078125,0.004443168640136719,-0.011623956263065338,-0.012201163917779922
1717512972405358600,3.514358642578125,0.004372596740722656,-0.016465142369270325,-0.012145111337304115
1717512972415365000,3.524365234375,-0.005112648010253906,-0.016620300710201263,-0.012193255126476288
1717512972425371400,3.534371337890625,-0.00031375885009765625,-0.007355675101280212,-0.012137338519096375
1717512972435378000,3.5443779296875,0.004405021667480469,-0.012371256947517395,-0.01679096184670925
1717512972445384400,3.554384521484375,0.004336357116699219,-0.017303243279457092,-0.01665843091905117
1717512972455391000,3.564390869140625,0.004268646240234375,-0.017444439232349396,-0.011922776699066162
1717512972465397500,3.5743974609375,-0.0005064010620117188,-0.0222918838262558,-0.016579989343881607
1717512972475404000,3.584404052734375,-0.0052013397216796875,-0.017744392156600952,-0.01644979976117611
1717512972485410600,3.59441064453125,-0.000400543212890625,-0.017981283366680145,-0.01150992140173912
1717512972495417000,3.6044169921875,-0.00038909912109375,-0.013402588665485382,-0.01617402583360672
1717512972505423600,3.614423583984375,0.004329681396484375,-0.022922739386558533,-0.020760394632816315
1717512972515430100,3.62443017578125,-0.005153656005859375,-0.023073554039001465,-0.01114453561604023
1717512972525436700,3.634436767578125,0.009062767028808594,-0.013701401650905609,-0.015917997807264328
1717512972535443200,3.644443115234375,-0.0005006790161132812,-0.013902649283409119,-0.015800047665834427
1717512972545449700,3.65444970703125,0.0042209625244140625,-0.01880914717912674,-0.010975470766425133
1717512972555456300,3.664456298828125,-0.000553131103515625,-0.023633867502212524,-0.015648502856492996
1717512972565462500,3.674462646484375,-0.000537872314453125,-0.014355659484863281,-0.020243650302290916
1717512972575469000,3.684468994140625,0.004184722900390625,-0.019254378974437714,-0.015343824401497841
1717512972585475600,3.6944755859375,-0.0005893707275390625,-0.014654494822025299,-0.010526863858103752
1717512972595482000,3.704482177734375,-0.0005750656127929688,-0.01483987271785736,-0.015207387506961823
1717512972605488600,3.714488525390625,0.004147529602050781,-0.024439118802547455,-0.0198086965829134
1717512972615495200,3.7244951171875,0.008792877197265625,-0.015147499740123749,-0.014917336404323578
1717512972625501700,3.734501708984375,-0.0007658004760742188,-0.020033277571201324,-0.010107502341270447
1717512972635508200,3.74450830078125,-0.0007486343383789062,-0.020129024982452393,-0.01960689201951027
1717512972645514800,3.7545146484375,-0.00543975830078125,-0.02022317796945572,-0.014718903228640556
1717512972655521000,3.76452099609375,0.0040740966796875,-0.02041902393102646,-0.009912379086017609
1717512972665527600,3.774527587890625,-0.0006971359252929688,-0.015902765095233917,-0.009893352165818214
1717512972675534000,3.7845341796875,0.0040264129638671875,-0.015964098274707794,-0.014584464952349663
1717512972685540600,3.79454052734375,0.003964424133300781,-0.016127675771713257,-0.014488793909549713
1717512972695547000,3.804546875,-0.0008058547973632812,-0.02099689096212387,-0.009581636637449265
1717512972705553400,3.814553466796875,-0.00078582763671875,-0.02117985486984253,-0.009466089308261871
1717512972715560000,3.824559814453125,-0.0007677078247070312,-0.016547657549381256,-0.01887170597910881
1717512972725566500,3.83456640625,-0.0007505416870117188,-0.026118464767932892,-0.018703369423747063
1717512972735572700,3.84457275390625,-0.0054416656494140625,-0.021403975784778595,-0.013725977391004562
1717512972745579300,3.854579345703125,0.004071235656738281,-0.021476909518241882,-0.013541365042328835
1717512972755585800,3.864585693359375,-0.0007009506225585938,-0.026257216930389404,-0.008754495531320572
1717512972765592000,3.874592041015625,-0.005393028259277344,-0.026249006390571594,-0.018171973526477814
1717512972775598600,3.8845986328125,-0.0005903244018554688,-0.01682373881340027,-0.013306703418493271
1717512972785605000,3.894605224609375,-0.000576019287109375,-0.016972750425338745,-0.013231117278337479
1717512972795611600,3.904611572265625,0.004146575927734375,-0.01711953431367874,-0.00844942219555378
1717512972805618000,3.914617919921875,0.004082679748535156,-0.01736713945865631,-0.008456027135252953
1717512972815624400,3.92462451171875,-0.0006875991821289062,-0.01761036366224289,-0.008358029648661613
1717512972825631000,3.934630859375,0.004036903381347656,-0.027163460850715637,-0.013073531910777092
1717512972835637500,3.944637451171875,-0.0007333755493164062,-0.017826229333877563,-0.01300184428691864
1717512972845643800,3.954643798828125,0.003993988037109375,-0.018061809241771698,-0.00341089628636837
1717512972855650300,3.964650390625,0.003931999206542969,-0.018190458416938782,-0.012815430760383606
1717512972865656800,3.97465673828125,-0.0008373260498046875,-0.023025311529636383,-0.008039452135562897
1717512972875663000,3.9846630859375,-0.0008182525634765625,-0.018362388014793396,-0.00805167481303215
1717512972885669600,3.994669677734375,-0.0055084228515625,-0.023194625973701477,-0.012773538008332253
1717512972895676200,4.00467626953125,0.00400543212890625,-0.02323773503303528,-0.012604838237166405
1717512972905682700,4.0146826171875,-0.0007648468017578125,-0.018571525812149048,-0.01725081354379654
1717512972915689000,4.02468896484375,-0.0007476806640625,-0.018691420555114746,-0.012400919571518898
1717512972925695500,4.034695556640625,0.003977775573730469,-0.014100991189479828,-0.007633104920387268
1717512972935702000,4.044701904296875,-0.0007925033569335938,-0.01900399476289749,-0.017069300636649132
1717512972945708500,4.05470849609375,-0.0054836273193359375,-0.02382555603981018,-0.012223688885569572
1717512972955714800,4.06471484375,0.004029273986816406,-0.014440961182117462,-0.007355568930506706
1717512972965721300,4.074721435546875,-0.0007429122924804688,-0.023943640291690826,-0.00737919844686985
1717512972975727900,4.084727783203125,0.0039825439453125,-0.028682872653007507,-0.021426215767860413
1717512972985734100,4.094734130859375,-0.0007886886596679688,-0.023822404444217682,-0.0023809466511011124
1717512972995740700,4.10474072265625,-0.00077056884765625,-0.01914619654417038,-0.0071960799396038055
1717512973005747200,4.114747314453125,0.003955841064453125,-0.023965395987033844,-0.011932222172617912
1717512973015753700,4.124753662109375,0.008602142333984375,-0.014475218951702118,-0.011777563020586967
1717512973025760000,4.134760009765625,-0.00095367431640625,-0.01937200129032135,-0.016332823783159256
1717512973035766500,4.1447666015625,0.0037755966186523438,-0.028895489871501923,-0.006685120984911919
1717512973045773000,4.15477294921875,0.003719329833984375,-0.024238303303718567,-0.011326519772410393
1717512973055779600,4.164779541015625,-0.010463714599609375,-0.019555464386940002,-0.011181963607668877
1717512973065785900,4.174785888671875,-0.005576133728027344,-0.02436758577823639,-0.011141825467348099
1717512973075792400,4.18479248046875,0.008646965026855469,-0.029099486768245697,-0.015810949727892876
1717512973085799000,4.194798828125,0.0037984848022460938,-0.024335354566574097,-0.010881802067160606
1717512973095805400,4.204805419921875,-0.0009679794311523438,-0.02435893565416336,-0.010638877749443054
1717512973105812000,4.21481201171875,0.0037622451782226562,-0.024382412433624268,-0.01040126197040081
1717512973115818500,4.224818603515625,0.008411407470703125,-0.02430223673582077,-0.0056655388325452805
1717512973125824800,4.23482470703125,-0.0058498382568359375,-0.024326667189598083,-0.015031272545456886
1717512973135831300,4.244831298828125,0.0036649703979492188,-0.019194699823856354,-0.00999395176768303
1717512973145837800,4.254837890625,0.008312225341796875,-0.023566141724586487,-0.009853610768914223
1717512973155844400,4.26484423828125,0.0034646987915039062,-0.018448255956172943,-0.004904929548501968
1717512973165851000,4.274850830078125,-0.01071929931640625,-0.013416439294815063,-0.004748541861772537
1717512973175857400,4.284857421875,-0.0011234283447265625,-0.022595100104808807,-0.004699282348155975
1717512973185864000,4.294864013671875,-0.0058135986328125,-0.022204436361789703,-0.014069318771362305
1717512973195870500,4.304870361328125,0.00370025634765625,-0.021821163594722748,-0.009158698841929436
1717512973205877000,4.314876953125,-0.005778312683105469,-0.02615375816822052,0.0003773607313632965
1717512973215883500,4.324883544921875,-0.0009737014770507812,-0.020996958017349243,-0.008976638317108154
1717512973225890000,4.33489013671875,0.0037508010864257812,-0.011219322681427002,-0.008760176599025726
1717512973235896600,4.344896484375,0.0036878585815429688,-0.020439952611923218,0.0008685532957315445
1717512973245903000,4.354903076171875,-0.0010824203491210938,-0.02009057253599167,-0.013207513839006424
1717512973255909600,4.36490966796875,0.0036439895629882812,-0.015038415789604187,-0.003505995497107506
1717512973265916200,4.374916259765625,-0.001125335693359375,-0.019488520920276642,-0.012801909819245338
1717512973275922400,4.38492236328125,0.00360107421875,-0.01905420422554016,-0.007819876074790955
1717512973285929000,4.394928955078125,0.008248329162597656,-0.01862788200378418,-0.003025548532605171
1717512973295935500,4.404935546875,0.012819290161132812,-0.01831267774105072,-0.007626460865139961
1717512973305942000,4.41494189453125,-0.0015201568603515625,-0.013294868171215057,-0.002734886482357979
1717512973315948500,4.424948486328125,0.0032138824462890625,-0.017778627574443817,-0.002634817734360695
1717512973325955000,4.434955078125,-0.006257057189941406,-0.017479799687862396,-0.00714312307536602
1717512973335961600,4.444961669921875,0.0032644271850585938,-0.017186269164085388,-0.006972147151827812
1717512973345968000,4.454968017578125,0.0032100677490234375,-0.012190163135528564,-0.006908902898430824
1717512973355974700,4.464974609375,-0.0015516281127929688,-0.011986643075942993,-0.006848091259598732
1717512973365981200,4.474981201171875,-0.0062351226806640625,-0.011684268712997437,-0.0019789282232522964
1717512973375987700,4.48498779296875,0.0032863616943359375,-0.020907752215862274,-0.0018996261060237885
1717512973385994200,4.494994140625,0.007939338684082031,-0.020458050072193146,-0.006532654166221619
1717512973396000800,4.505000732421875,-0.00160980224609375,-0.005993664264678955,-0.01119176298379898
1717512973406007300,4.51500732421875,-0.0015840530395507812,-0.010502137243747711,-0.0015453062951564789
1717512973416013600,4.525013671875,0.00315093994140625,-0.015039414167404175,-0.0014779269695281982
1717512973426020000,4.53502001953125,-0.0016107559204101562,-0.009981289505958557,-0.0015160031616687775
1717512973436026600,4.545026611328125,0.0031232833862304688,-0.014425359666347504,-0.006263058632612228
1717512973446033200,4.555033203125,-0.0016374588012695312,-0.014190435409545898,-0.006118938326835632
1717512973456039700,4.565039794921875,0.0078067779541015625,-0.00454297661781311,-0.010686762630939484
1717512973466046200,4.575046142578125,-0.0017404556274414062,-0.02330900728702545,-0.005763329565525055
1717512973476052700,4.585052734375,0.0029964447021484375,-0.018116801977157593,-0.005631450563669205
1717512973486059300,4.595059326171875,-0.00176239013671875,-0.017823822796344757,-0.010211247950792313
1717512973496065800,4.605065673828125,0.0029745101928710938,-0.008016102015972137,-0.005298390984535217
1717512973506072300,4.615072265625,0.0029239654541015625,-0.012498855590820312,-0.009886577725410461
1717512973516078800,4.625078857421875,-0.0018339157104492188,-0.0169074609875679,-0.0002721846103668213
1717512973526085400,4.63508544921875,0.0029048919677734375,-0.0025120899081230164,-0.00965208187699318
1717512973536092000,4.645091796875,-0.0018529891967773438,-0.011797688901424408,-0.004855025559663773
1717512973546098400,4.655098388671875,0.0028867721557617188,-0.011615611612796783,-0.0000353790819644928
1717512973556105000,4.66510498046875,-0.0018711090087890625,-0.011334322392940521,-0.004817243665456772
1717512973566111200,4.675111328125,0.0028696060180664062,-0.01587063819169998,-0.00931352749466896
1717512973576117800,4.68511767578125,0.0028219223022460938,-0.015623822808265686,0.0001837313175201416
1717512973586124300,4.695124267578125,-0.001934051513671875,-0.005965009331703186,-0.004500396549701691
1717512973596130800,4.705130859375,-0.0019016265869140625,-0.005782186985015869,-0.004295121878385544
1717512973606137300,4.715137451171875,0.0028390884399414062,-0.015020720660686493,0.0006148144602775574
1717512973616144000,4.725143798828125,-0.0019178390502929688,-0.005272038280963898,-0.004078075289726257
1717512973626150400,4.735150390625,0.0028219223022460938,-0.014521375298500061,0.00543251633644104
1717512973636157000,4.745156982421875,-0.0019350051879882812,-0.009491965174674988,0.000658281147480011
1717512973646163500,4.75516357421875,-0.001903533935546875,-0.004547238349914551,0.0006727725267410278
1717512973656170000,4.765169921875,0.0028362274169921875,-0.009103730320930481,0.0006853751838207245
1717512973666176500,4.775176513671875,0.002788543701171875,-0.008876606822013855,0.0008015744388103485
1717512973676182800,4.785182861328125,-0.0019664764404296875,-0.004049606621265411,0.0008108764886856079
1717512973686189300,4.795189208984375,-0.006641387939453125,-0.008721217513084412,0.0009237602353096008
1717512973696195800,4.80519580078125,-0.00182342529296875,-0.008504770696163177,-0.008487485349178314
1717512973706202400,4.815202392578125,-0.0017938613891601562,-0.0035842806100845337,-0.003615736961364746
1717512973716208600,4.825208740234375,0.0076541900634765625,-0.003558032214641571,0.001277003437280655
1717512973726215200,4.835215087890625,-0.0018901824951171875,-0.0035345107316970825,-0.0035360902547836304
1717512973736221700,4.8452216796875,0.0028486251831054688,-0.0034097880125045776,-0.008167646825313568
1717512973746228200,4.855228271484375,0.00279998779296875,-0.007995747029781342,-0.008013416081666946
1717512973756234500,4.865234375,0.0027523040771484375,-0.007798917591571808,-0.00325717031955719
1717512973766241000,4.875240966796875,-0.002002716064453125,-0.007607027888298035,-0.0031875185668468475
1717512973776247600,4.88524755859375,-0.006678581237792969,-0.007419250905513763,0.0015897303819656372
1717512973786253800,4.89525390625,-0.001857757568359375,-0.0026305466890335083,-0.003027483820915222
1717512973796260400,4.90526025390625,0.0028829574584960938,-0.007340095937252045,-0.002963349223136902
1717512973806267000,4.915266845703125,0.007544517517089844,-0.007264137268066406,-0.0029023177921772003
1717512973816273400,4.9252734375,0.0074176788330078125,-0.01650417596101761,-0.002842199057340622
1717512973826279700,4.93527978515625,0.007292747497558594,-0.0020487457513809204,-0.0027851425111293793
1717512973836286200,4.9452861328125,0.0024614334106445312,0.002748943865299225,0.0019806325435638428
1717512973846292700,4.955292724609375,0.0024194717407226562,-0.0019531697034835815,-0.002753298729658127
1717512973856299300,4.96529931640625,0.0023784637451171875,-0.006578028202056885,0.002007868140935898
1717512973866305500,4.975305419921875,-0.0023717880249023438,-0.006314672529697418,-0.002727426588535309
1717512973876312000,4.98531201171875,0.0023756027221679688,0.0032571032643318176,-0.0026761479675769806
1717512973886318600,4.995318603515625,0.0023355484008789062,-0.006269440054893494,-0.0027299262583255768
1717512973896325000,5.0053251953125,-0.002410888671875,-0.001512482762336731,-0.007388997822999954
1717512973906331400,5.015331298828125,-0.0023708343505859375,-0.0061505138874053955,-0.0025561824440956116
1717512973916338000,5.025337890625,-0.002330780029296875,-0.00139695405960083,-0.002408161759376526
1717512973926344400,5.035344482421875,0.0024166107177734375,-0.006038501858711243,0.0023411810398101807
1717512973936350700,5.045350830078125,0.002376556396484375,-0.0011860355734825134,-0.00230218842625618
1717512973946357200,5.055357177734375,-0.0023717880249023438,-0.00583290308713913,-0.002264566719532013
1717512973956363800,5.06536376953125,0.002376556396484375,-0.005694583058357239,-0.0022281818091869354
1717512973966370300,5.075370361328125,-0.007081031799316406,-0.01026761531829834,0.0024134069681167603
1717512973976376600,5.08537646484375,0.007163047790527344,-0.0053484514355659485,0.0023707449436187744
1717512973986383000,5.095383056640625,0.0023345947265625,-0.009929284453392029,0.0024316199123859406
1717512973996389600,5.1053896484375,0.0022954940795898438,-0.009725622832775116,-0.002216491848230362
1717512974006396200,5.115396240234375,-0.0024518966674804688,-0.000005252659320831299,-0.0020795874297618866
1717512974016402400,5.12540234375,0.0022983551025390625,-0.009489104151725769,0.002660561352968216
1717512974026409000,5.135408935546875,-0.0024480819702148438,0.00012239068746566772,-0.0020965375006198883
1717512974036415500,5.14541552734375,-0.0024089813232421875,-0.004450060427188873,-0.00206558033823967
1717512974046421800,5.155421875,0.007048606872558594,-0.013759002089500427,0.0026730187237262726
1717512974056428300,5.16542822265625,0.011639595031738281,0.0006293430924415588,-0.006690304726362228
1717512974066434800,5.175434814453125,-0.0026798248291015625,0.0005479380488395691,-0.0019787773489952087
1717512974076441300,5.18544140625,-0.0026350021362304688,-0.008846916258335114,-0.0019515082240104675
1717512974086447900,5.19544775390625,0.0021162033081054688,0.0008515641093254089,0.002783495932817459
1717512974096454400,5.205454345703125,-0.0026273727416992188,0.0008670017123222351,-0.0019780173897743225
1717512974106461000,5.2154609375,-0.007292747497558594,-0.0037240907549858093,-0.006660550832748413
1717512974116467500,5.225467529296875,-0.007171630859375,-0.003634311258792877,-0.0017449408769607544
1717512974126473700,5.2354736328125,-0.0023431777954101562,0.0011612102389335632,-0.006329867988824844
1717512974136480300,5.245480224609375,-0.0023040771484375,-0.0035413801670074463,-0.0015248581767082214
1717512974146486800,5.25548681640625,-0.00226593017578125,-0.008166573941707611,-0.0015089474618434906
1717512974156493300,5.265493408203125,0.0024805068969726562,0.0014114752411842346,-0.006200861185789108
1717512974166499800,5.275499755859375,0.0024394989013671875,-0.008006922900676727,0.0033092834055423737
1717512974176506400,5.28550634765625,-0.0023097991943359375,-0.0031436309218406677,-0.006173927336931229
1717512974186513000,5.295512939453125,-0.0022716522216796875,-0.00777927041053772,0.0033358782529830933
1717512974196519400,5.30551953125,-0.0022335052490234375,-0.00292157381772995,-0.001335781067609787
1717512974206526000,5.31552587890625,-0.002197265625,-0.0028549134731292725,-0.0061376020312309265
1717512974216532500,5.325532470703125,0.0025491714477539062,-0.007601968944072723,-0.001338321715593338
1717512974226539000,5.3355390625,-0.0022020339965820312,0.0019580498337745667,-0.00132804736495018
1717512974236545500,5.345545654296875,-0.006875038146972656,0.006751954555511475,-0.001319386065006256
1717512974246552000,5.355552001953125,0.0026569366455078125,-0.002764202654361725,-0.006019856780767441
1717512974256558600,5.36555859375,-0.0020961761474609375,0.0020044296979904175,-0.005932364612817764
1717512974266565000,5.375565185546875,0.0026464462280273438,-0.002622447907924652,0.0036734789609909058
1717512974276571400,5.3855712890625,0.00260162353515625,-0.002566896378993988,-0.0059217289090156555
1717512974286578000,5.395577880859375,0.0025587081909179688,-0.0025147348642349243,-0.0011294782161712646
1717512974296584400,5.40558447265625,0.0025157928466796875,-0.002464473247528076,0.0036859922111034393
1717512974306591000,5.415591064453125,0.007182121276855469,0.0022925585508346558,-0.0010994374752044678
1717512974316597500,5.425597412109375,-0.0023546218872070312,-0.002446502447128296,0.003613114356994629
1717512974326604000,5.43560400390625,0.007102012634277344,0.002308674156665802,-0.005878902971744537
1717512974336610600,5.445610595703125,0.0022745132446289062,-0.002329707145690918,-0.005796551704406738
1717512974346617000,5.4556171875,0.00223541259765625,-0.006892658770084381,0.0037014633417129517
1717512974356623600,5.46562353515625,-0.0072193145751953125,-0.002066582441329956,-0.0010846666991710663
1717512974366630100,5.475630126953125,0.0023183822631835938,0.007386758923530579,-0.0010824613273143768
1717512974376636700,5.48563671875,0.0022792816162109375,-0.00215274840593338,0.0036282986402511597
1717512974386643200,5.495643310546875,0.0022411346435546875,-0.0068251267075538635,-0.005864188075065613
1717512974396649700,5.505649658203125,0.0069122314453125,-0.002003282308578491,0.0036359988152980804
1717512974406656300,5.51565625,-0.0026197433471679688,0.00273740291595459,-0.0011478401720523834
1717512974416662500,5.52566259765625,0.002132415771484375,-0.006727881729602814,0.00366765633225441
1717512974426669000,5.5356689453125,0.0020952224731445312,0.0029014945030212402,-0.001220710575580597
1717512974436675600,5.545675537109375,-0.0073566436767578125,0.002849169075489044,-0.0013188235461711884
1717512974446682000,5.55568212890625,0.0021829605102539062,-0.0019112154841423035,0.0035011135041713715
1717512974456688600,5.565688720703125,0.0021467208862304688,-0.00188436359167099,-0.0012795142829418182
1717512974466695200,5.575695068359375,-0.0025987625122070312,-0.006463967263698578,-0.005876906216144562
1717512974476701700,5.58570166015625,-0.0025568008422851562,-0.0015507638454437256,-0.0010834932327270508
1717512974486708200,5.595708251953125,-0.002513885498046875,-0.006241016089916229,0.003629285842180252
1717512974496714800,5.60571484375,0.0022363662719726562,0.00327233225107193,0.003556199371814728
1717512974506721300,5.61572119140625,-0.007218360900878906,-0.0014997795224189758,0.0034835785627365112
1717512974516727800,5.625727783203125,0.0023193359375,0.003224119544029236,-0.0012961700558662415
1717512974526734300,5.635734375,0.0022792816162109375,0.0032632574439048767,-0.0012873969972133636
1717512974536740900,5.645740966796875,-0.002468109130859375,-0.0014071837067604065,-0.0012774951756000519
1717512974546747400,5.655747314453125,0.0022802352905273438,-0.0012922808527946472,-0.0012685172259807587
1717512974556754000,5.66575390625,0.0022411346435546875,-0.0011796504259109497,-0.0012584179639816284
1717512974566760200,5.67576025390625,0.0022029876708984375,-0.0010700449347496033,-0.0012492313981056213
1717512974576766700,5.6857666015625,-0.007251739501953125,0.01316310465335846,0.0034696832299232483
1717512974586773200,5.695773193359375,0.002285003662109375,0.0036152005195617676,0.0034016184508800507
1717512974596779800,5.70577978515625,-0.0024623870849609375,0.0036423280835151672,-0.0012713707983493805
1717512974606786300,5.715786376953125,0.0022869110107421875,0.003565177321434021,-0.0059684813022613525
1717512974616792800,5.725792724609375,0.0022478103637695312,0.0035916268825531006,-0.005878463387489319
1717512974626799400,5.73579931640625,0.006918907165527344,-0.0011952444911003113,0.008336074650287628
1717512974636806000,5.745805908203125,-0.0026140213012695312,0.003513827919960022,-0.0012290701270103455
1717512974646812400,5.7558125,-0.0025701522827148438,0.0034347549080848694,0.0034912042319774628
1717512974656819000,5.76581884765625,0.006890296936035156,0.0034592077136039734,-0.0011809282004833221
1717512974666825500,5.775825439453125,-0.0026426315307617188,0.008190743625164032,0.0035388879477977753
1717512974676832000,5.78583203125,-0.0073070526123046875,0.0034250691533088684,0.0035748668015003204
1717512974686838500,5.795838623046875,0.006939888000488281,0.003445863723754883,-0.005911145359277725
1717512974696845000,5.805844970703125,-0.002593994140625,-0.0012431219220161438,0.0035963989794254303
1717512974706851300,5.815851318359375,-0.007259368896484375,-0.0012502819299697876,-0.0011813044548034668
1717512974716857900,5.82585791015625,0.0022783279418945312,0.00355326384305954,-0.0011707954108715057
1717512974726864400,5.835864501953125,-0.0024690628051757812,0.003566823899745941,-0.0011604875326156616
1717512974736871000,5.845870849609375,0.0022802352905273438,0.0034759119153022766,-0.005857978016138077
1717512974746877400,5.85587744140625,-0.0024662017822265625,0.0034884214401245117,-0.0009567588567733765
1717512974756884000,5.865884033203125,0.0022830963134765625,-0.001209266483783722,0.0038626976311206818
1717512974766890200,5.87589013671875,0.0022439956665039062,-0.0011218786239624023,0.003788817673921585
1717512974776896800,5.885896728515625,0.0022058486938476562,0.003671586513519287,-0.0009915679693222046
1717512974786903300,5.8959033203125,0.0021686553955078125,0.0035717859864234924,-0.0009838640689849854
1717512974796909800,5.905909912109375,0.0021314620971679688,0.0035754218697547913,-0.005685091018676758
1717512974806916000,5.915916015625,-0.0073223114013671875,0.008285708725452423,0.008525177836418152
1717512974816922600,5.925922607421875,0.0022172927856445312,-0.0013130828738212585,-0.0010446347296237946
1717512974826929200,5.93592919921875,0.0021791458129882812,0.0034761056303977966,0.0036715753376483917
1717512974836935700,5.945935791015625,-0.0025653839111328125,-0.0013364553451538086,0.0036002956330776215
1717512974846942000,5.95594189453125,0.006893157958984375,-0.0012587010860443115,-0.005888313055038452
1717512974856948500,5.965948486328125,-0.0026397705078125,0.003525778651237488,-0.0057998597621917725
1717512974866955000,5.975955078125,0.0021114349365234375,0.0035198256373405457,0.008410587906837463
1717512974876961300,5.985961181640625,0.006783485412597656,0.0035134628415107727,-0.0011570602655410767
1717512974886967800,5.9959677734375,0.006669044494628906,-0.0010997578501701355,-0.0010460689663887024
1717512974896974300,6.005974365234375,0.0018482208251953125,-0.0009283646941184998,0.003772381693124771
1717512974906980900,6.01598095703125,0.0018186569213867188,-0.005677059292793274,0.0036963075399398804
1717512974916987100,6.025987060546875,-0.0029211044311523438,-0.0008270591497421265,0.008330781012773514
1717512974926993700,6.03599365234375,0.001834869384765625,-0.0007677823305130005,-0.0012381002306938171
1717512974937000200,6.046000244140625,0.0018033981323242188,0.003997802734375,0.00347798690199852
1717512974947006700,6.0560068359375,0.0017728805541992188,0.00868266075849533,-0.001198742538690567
1717512974957013000,6.066012939453125,0.006451606750488281,-0.005546241998672485,-0.0011925064027309418
1717512974967019500,6.07601953125,-0.0030717849731445312,0.0039000362157821655,-0.001084398478269577
1717512974977026000,6.086026123046875,-0.0030202865600585938,0.0038740932941436768,-0.000977400690317154
1717512974987032300,6.0960322265625,-0.0029697418212890625,-0.0008612722158432007,-0.0009758137166500092
1717512974997038800,6.106038818359375,0.0017881393432617188,0.0038978680968284607,-0.0009756200015544891
1717512975007045400,6.11604541015625,0.001758575439453125,-0.005548544228076935,-0.0008704960346221924
1717512975017052000,6.126052001953125,-0.002979278564453125,-0.0007133185863494873,0.008545402437448502
1717512975027058200,6.13605810546875,-0.0029296875,-0.000668451189994812,-0.0010304003953933716
1717512975037064700,6.146064697265625,0.0018281936645507812,-0.0006254985928535461,0.0037820935249328613
1717512975047071200,6.1560712890625,0.0017976760864257812,-0.005293391644954681,0.003701101988554001
1717512975057077800,6.166077880859375,-0.002941131591796875,-0.0051756352186203,-0.0010865367949008942
1717512975067084000,6.176083984375,-0.0028924942016601562,-0.00035237520933151245,-0.005794785916805267
1717512975077090600,6.186090576171875,-0.0028438568115234375,-0.0003192126750946045,0.003804091364145279
1717512975087097000,6.19609716796875,-0.0075054168701171875,-0.0002877041697502136,-0.005695126950740814
1717512975097103400,6.206103271484375,-0.0026721954345703125,0.004554033279418945,-0.0008074082434177399
1717512975107110000,6.21610986328125,0.0067882537841796875,-0.00010325014591217041,-0.005418833345174789
1717512975117116400,6.226116455078125,-0.002742767333984375,0.000024527311325073242,0.004068583250045776
1717512975127123000,6.236123046875,-0.007405281066894531,0.004754312336444855,-0.0006252005696296692
1717512975137129500,6.24612939453125,0.0021352767944335938,0.0046950578689575195,-0.0006370432674884796
1717512975147136000,6.256135986328125,-0.0026092529296875,-0.004781216382980347,0.0040602907538414
1717512975157142500,6.266142578125,0.0021429061889648438,0.000025019049644470215,-0.0007384978234767914
1717512975167149000,6.276149169921875,0.0021076202392578125,0.00004135817289352417,0.004062533378601074
1717512975177155600,6.286155517578125,-0.002635955810546875,0.000056236982345581055,-0.0006343051791191101
1717512975187162000,6.296162109375,0.0021152496337890625,-0.0046389102935791016,-0.0007514990866184235
1717512975197168600,6.306168701171875,0.0020799636840820312,0.00486881285905838,0.004047747701406479
1717512975207175200,6.316175048828125,-0.0026636123657226562,0.009508728981018066,-0.0006498843431472778
1717512975217181400,6.326181396484375,-0.002620697021484375,0.004755869507789612,-0.005477480590343475
1717512975227188000,6.33618798828125,-0.0025768280029296875,0.004686795175075531,-0.0007038190960884094
1717512975237194500,6.346194580078125,0.0021734237670898438,-0.004696562886238098,0.003988642245531082
1717512975247201000,6.356200927734375,-0.0072803497314453125,0.00009781122207641602,0.003996964544057846
1717512975257207600,6.36620751953125,0.00225830078125,0.004811137914657593,-0.0007040426135063171
1717512975267214000,6.376214111328125,0.0022211074829101562,-0.009389646351337433,-0.005327269434928894
1717512975277220600,6.386220703125,-0.00252532958984375,0.004999950528144836,0.004148498177528381
1717512975287227100,6.39622705078125,0.0022249221801757812,0.00021047890186309814,-0.0005577355623245239
1717512975297233700,6.406233642578125,0.006896018981933594,-0.004499942064285278,-0.005288366228342056
1717512975307240200,6.416240234375,0.0067806243896484375,0.0002841576933860779,-0.0005235038697719574
1717512975317246700,6.426246826171875,0.006667137145996094,0.009695962071418762,-0.005152501165866852
1717512975327253200,6.436253173828125,-0.00286102294921875,0.004823930561542511,-0.0003909766674041748
1717512975337259800,6.446259765625,-0.007521629333496094,0.004740558564662933,-0.0003146454691886902
1717512975347266300,6.456266357421875,0.0020198822021484375,0.0000521242618560791,-0.005051992833614349
1717512975357272600,6.4662724609375,0.0019855499267578125,0.00014930963516235352,-0.00029369816184043884
1717512975367279000,6.476279052734375,0.0019512176513671875,0.004952378571033478,-0.00022049620747566223
1717512975377285600,6.48628564453125,-0.0027894973754882812,0.004862450063228607,0.009164944291114807
1717512975387292200,6.496292236328125,-0.0027437210083007812,0.004876241087913513,-0.00033757835626602173
1717512975397298700,6.506298583984375,0.0020093917846679688,0.000180169939994812,0.004340372979640961
1717512975407305200,6.51630517578125,-0.0027322769165039062,0.009583845734596252,-0.0004772394895553589
1717512975417311700,6.526311767578125,0.00202178955078125,0.00941256433725357,0.004202269017696381
1717512975427318300,6.536318359375,-0.0027217864990234375,-0.00007081031799316406,-0.0005104765295982361
1717512975437324800,6.54632470703125,0.0020322799682617188,-0.00008221715688705444,-0.0005393624305725098
1717512975447331300,6.556331298828125,-0.0027112960815429688,0.0000077858567237854,0.004243485629558563
1717512975457337900,6.566337890625,-0.0073757171630859375,0.00009523332118988037,-0.0005741491913795471
1717512975467344400,6.576344482421875,0.0021648406982421875,-0.004631318151950836,-0.0006021559238433838
1717512975477351000,6.586350830078125,0.00212860107421875,0.0001362338662147522,-0.0006319470703601837
1717512975487357400,6.596357421875,-0.0026159286499023438,0.0002183467149734497,0.004151396453380585
1717512975497364000,6.606364013671875,0.0021352767944335938,0.0002976357936859131,-0.0006667003035545349
1717512975507370200,6.616370361328125,0.0020990371704101562,0.00037492066621780396,-0.0006951242685317993
1717512975517376800,6.626376708984375,-0.007353782653808594,0.0004498288035392761,-0.0006199926137924194
1717512975527383300,6.63638330078125,0.0021848678588867188,0.0005227699875831604,-0.0005453005433082581
1717512975537389800,6.646389892578125,0.002147674560546875,-0.0041156187653541565,-0.0005762912333011627
1717512975547396400,6.656396240234375,0.0021123886108398438,0.009949952363967896,-0.0006069093942642212
1717512975557403000,6.66640283203125,0.0020761489868164062,-0.004265084862709045,-0.005345724523067474
1717512975567409400,6.676409423828125,-0.0026683807373046875,0.0052981898188591,-0.0005894564092159271
1717512975577416000,6.686416015625,-0.00262451171875,0.0005754604935646057,0.004088476300239563
1717512975587422500,6.69642236328125,0.0021276473999023438,0.00524449348449707,0.003980819135904312
1717512975597429000,6.706428955078125,-0.00261688232421875,0.0005201324820518494,-0.0008346214890480042
1717512975607435500,6.716435546875,-0.0025739669799804688,0.009999006986618042,-0.0008611418306827545
1717512975617442000,6.726442138671875,0.0021762847900390625,0.0004841908812522888,-0.00559571385383606
1717512975627448600,6.736448486328125,-0.0072784423828125,0.0005451515316963196,0.0038744136691093445
1717512975637455000,6.746455078125,0.0022602081298828125,0.005207747220993042,0.003769855946302414
1717512975647461400,6.75646142578125,0.0022220611572265625,0.0050826966762542725,0.003667294979095459
1717512975657468000,6.766468017578125,-0.0025243759155273438,0.0003544166684150696,-0.0011421553790569305
1717512975667474400,6.776474365234375,0.0022268295288085938,0.005016237497329712,0.003649674355983734
1717512975677481000,6.78648095703125,0.00689697265625,0.0002851560711860657,0.008258730173110962
1717512975687487500,6.796487548828125,0.0020732879638671875,-0.004368342459201813,-0.0012311413884162903
1717512975697494000,6.806493896484375,0.0067462921142578125,0.0004720240831375122,-0.0059561096131801605
1717512975707500500,6.81650048828125,0.0019254684448242188,0.0005215033888816833,-0.005790993571281433
1717512975717507000,6.826507080078125,0.00189208984375,0.0005685314536094666,-0.001023855060338974
1717512975727513600,6.836513671875,0.0018596649169921875,0.010031118988990784,-0.0010432973504066467
1717512975737520000,6.84652001953125,0.0018281936645507812,0.0146261528134346,0.0036466605961322784
1717512975747526700,6.856526611328125,-0.0029115676879882812,0.009726174175739288,0.003550339490175247
1717512975757533200,6.866533203125,-0.0028638839721679688,0.004906222224235535,-0.001253470778465271
1717512975767539700,6.876539794921875,0.00189208984375,-0.004542842507362366,0.003544781357049942
1717512975777546200,6.886546142578125,-0.0028476715087890625,0.0001868605613708496,-0.0012568943202495575
1717512975787552800,6.896552734375,-0.0028009414672851562,0.004939831793308258,-0.0012694001197814941
1717512975797559000,6.90655908203125,-0.0027551651000976562,0.004903808236122131,0.0034274645149707794
1717512975807565600,6.916565673828125,-0.0027093887329101562,0.0001586228609085083,-0.0012672916054725647
1717512975817572000,6.926572021484375,0.0020437240600585938,0.0001995861530303955,-0.0012789107859134674
1717512975827578600,6.93657861328125,-0.0026988983154296875,0.00494808703660965,-0.0011844970285892487
1717512975837585200,6.946585205078125,-0.0026540756225585938,0.00019872933626174927,0.0036164820194244385
1717512975847591700,6.956591796875,-0.0026111602783203125,-0.004472590982913971,-0.0011825375258922577
1717512975857598000,6.966597900390625,-0.0025682449340820312,0.005058206617832184,-0.001193508505821228
1717512975867604500,6.9766044921875,-0.00252532958984375,0.005012243986129761,-0.005808189511299133
1717512975877611000,6.986611083984375,-0.0024824142456054688,0.00015406310558319092,0.00848880410194397
1717512975887617500,6.996617431640625,-0.00244140625,0.0048962607979774475,-0.00109843909740448
1717512975897623800,7.006623779296875,0.002307891845703125,0.00014115869998931885,-0.001005169004201889
1717512975907630300,7.01663037109375,0.002269744873046875,0.00017286092042922974,0.008503921329975128
1717512975917636900,7.026636962890625,-0.0024766921997070312,0.00020298361778259277,-0.005688350647687912
1717512975927643400,7.036643310546875,0.006981849670410156,0.004940159618854523,-0.005621548742055893
1717512975937649700,7.046649658203125,0.006866455078125,0.004785463213920593,0.0038613006472587585
1717512975947656200,7.05665625,0.0020437240600585938,0.009444199502468109,-0.0009397789835929871
1717512975957662700,7.066662841796875,-0.012116432189941406,0.004607073962688446,-0.0009523630142211914
1717512975967669000,7.0766689453125,0.006918907165527344,-0.00004713982343673706,-0.0009648874402046204
1717512975977675500,7.086675537109375,0.0020961761474609375,0.004586271941661835,-0.0008731000125408173
1717512975987682000,7.09668212890625,0.006770133972167969,-0.00017317384481430054,0.0038202740252017975
1717512975997688600,7.1066884765625,0.0019483566284179688,0.004562981426715851,-0.0008787289261817932
1717512976007694800,7.11669482421875,0.0019159317016601562,0.00451149046421051,0.0038162246346473694
1717512976017701400,7.126701416015625,0.006592750549316406,-0.004957959055900574,-0.0009865835309028625
1717512976027708000,7.1367080078125,-0.0029344558715820312,0.004564359784126282,-0.0010000728070735931
1717512976037714400,7.14671435546875,0.0065326690673828125,-0.0003022924065589905,0.003693915903568268
1717512976047720700,7.156720703125,0.0017156600952148438,0.004432260990142822,0.0036017149686813354
1717512976057727200,7.166727294921875,0.0016870498657226562,0.004378564655780792,-0.0010946281254291534
1717512976067733800,7.176733642578125,-0.0030498504638671875,-0.0003835409879684448,-0.0011077634990215302
1717512976077740000,7.186739990234375,0.0064182281494140625,-0.0050669461488723755,0.003690827637910843
1717512976087746600,7.19674658203125,0.0016031265258789062,-0.0049643367528915405,-0.0011114254593849182
1717512976097753000,7.206753173828125,0.001575469970703125,0.0045535266399383545,-0.001227695494890213
1717512976107759600,7.216759521484375,0.0062580108642578125,-0.0049225762486457825,0.003468520939350128
1717512976117766000,7.226765869140625,-0.0032634735107421875,-0.00011550635099411011,-0.0012277588248252869
1717512976127772400,7.2367724609375,0.0014982223510742188,-0.004702962934970856,0.0035711489617824554
1717512976137779000,7.246779052734375,-0.00323486328125,0.00009941309690475464,0.0035812072455883026
1717512976147785500,7.256785400390625,0.0062351226806640625,0.0002159327268600464,-0.005723059177398682
1717512976157791700,7.266791748046875,-0.0032863616943359375,-0.004481501877307892,-0.0009522996842861176
1717512976167798300,7.27679833984375,-0.003231048583984375,0.009629912674427032,0.008447304368019104
1717512976177804800,7.2868046875,0.006239891052246094,0.00006552785634994507,-0.0011453628540039062
1717512976187811000,7.29681103515625,0.0014276504516601562,0.0047858282923698425,0.0035474449396133423
1717512976197817600,7.306817626953125,-0.0033054351806640625,0.00471833348274231,0.0033499784767627716
1717512976207824100,7.31682421875,0.0014591217041015625,-0.0001600608229637146,-0.0013453513383865356
1717512976217830700,7.32683056640625,0.0014352798461914062,-0.004958018660545349,-0.001358233392238617
1717512976227837200,7.336837158203125,-0.008006095886230469,0.004552215337753296,-0.0013719983398914337
1717512976237843700,7.34684375,-0.0031642913818359375,-0.00022226572036743164,0.008031591773033142
1717512976247850200,7.356850341796875,-0.00782012939453125,-0.00020859390497207642,-0.0015549585223197937
1717512976257856800,7.366856689453125,-0.0029811859130859375,-0.00019552558660507202,0.0031440667808055878
1717512976267863300,7.37686328125,0.0017766952514648438,-0.00018302351236343384,-0.0016523748636245728
1717512976277869800,7.386869873046875,0.006455421447753906,-0.00017105042934417725,0.007757000625133514
1717512976287876400,7.39687646484375,0.00634765625,-0.00015957653522491455,-0.0018247254192829132
1717512976297883000,7.4068828125,0.010950088500976562,0.004560016095638275,-0.00643472746014595
1717512976307889200,7.41688916015625,0.00135040283203125,-0.00021614879369735718,0.003055766224861145
1717512976317895700,7.426895751953125,0.0060367584228515625,0.004503458738327026,0.003072354942560196
1717512976327902200,7.436902099609375,0.0012273788452148438,0.009144522249698639,0.0029865652322769165
1717512976337908700,7.44690869140625,-0.00350189208984375,-0.00041781365871429443,-0.0017028972506523132
1717512976347915300,7.456915283203125,-0.003444671630859375,-0.00500912219285965,-0.0016054026782512665
1717512976357921800,7.466921875,0.0013217926025390625,-0.00021027028560638428,-0.0016126446425914764
1717512976367928300,7.47692822265625,-0.0034084320068359375,0.004508361220359802,-0.0016196072101593018
1717512976377934800,7.486934814453125,-0.0033512115478515625,0.004439495503902435,0.003082290291786194
1717512976387941400,7.49694140625,0.0014133453369140625,-0.000337064266204834,0.002997376024723053
1717512976397948000,7.506947998046875,0.0013904571533203125,0.004279293119907379,0.0029130466282367706
1717512976407954400,7.516954345703125,0.0013675689697265625,0.004213593900203705,0.0028313398361206055
1717512976417961000,7.5269609375,-0.008072853088378906,0.008857063949108124,0.00285353884100914
1717512976427967500,7.536967529296875,0.006186485290527344,-0.000702396035194397,-0.011455707252025604
1717512976437974000,7.54697412109375,0.0013751983642578125,0.004023268818855286,0.0029316991567611694
1717512976447981000,7.55698095703125,0.0013523101806640625,-0.005455419421195984,-0.0017534196376800537
1717512976457987600,7.566987548828125,-0.00337982177734375,-0.0005474984645843506,-0.006361138075590134
1717512976467994000,7.576994140625,0.006093025207519531,0.004278548061847687,0.003130745142698288
1717512976478000600,7.587000732421875,0.005991935729980469,-0.0004964545369148254,-0.0016610771417617798
1717512976488007200,7.597007080078125,-0.0035247802734375,-0.005192019045352936,0.0030444376170635223
1717512976498013400,7.607013427734375,0.005950927734375,-0.005100928246974945,0.0030664727091789246
1717512976508020000,7.61702001953125,0.0011425018310546875,-0.00019969791173934937,-0.0017235279083251953
1717512976518026500,7.627026611328125,0.0011234283447265625,-0.00019230693578720093,-0.0017249025404453278
1717512976528033000,7.637032958984375,0.0058135986328125,-0.00018496066331863403,-0.001725081354379654
1717512976538039600,7.64703955078125,0.0010080337524414062,0.004530139267444611,-0.006434716284275055
1717512976548046000,7.657046142578125,0.010408401489257812,-0.0002509206533432007,0.0031633488833904266
1717512976558052600,7.667052490234375,-0.0038909912109375,-0.00024372339248657227,0.0031853429973125458
1717512976568059100,7.67705908203125,0.000881195068359375,0.004574835300445557,-0.0016048625111579895
1717512976578065700,7.687065673828125,0.000865936279296875,0.004603639245033264,0.0031009986996650696
1717512976588072200,7.697072265625,0.0008516311645507812,0.004528164863586426,-0.006294045597314835
1717512976598078700,7.70707861328125,-0.0038709640502929688,0.004453405737876892,-0.0062185972929000854
1717512976608085200,7.717085205078125,0.0009021759033203125,-0.005037464201450348,0.0033770911395549774
1717512976618091800,7.727091796875,-0.0038213729858398438,-0.00024534016847610474,0.003291349858045578
1717512976628098300,7.737098388671875,0.000949859619140625,0.004569627344608307,-0.001398291438817978
1717512976638104800,7.747104736328125,0.010351181030273438,0.004491835832595825,-0.0014045201241970062
1717512976648111000,7.757111083984375,0.005469322204589844,-0.00019059330224990845,0.0032978802919387817
1717512976658117600,7.76711767578125,0.0053768157958984375,0.014038726687431335,-0.0014953874051570892
1717512976668124200,7.777124267578125,-0.004130363464355469,-0.0003247261047363281,-0.0013969875872135162
1717512976678130700,7.787130615234375,0.0053558349609375,-0.0003237798810005188,0.0033049285411834717
1717512976688137200,7.79713720703125,0.0005578994750976562,-0.0003236830234527588,-0.0013855844736099243
1717512976698143700,7.807143798828125,0.0005483627319335938,-0.00032445043325424194,-0.0013928189873695374
1717512976708150300,7.817150390625,0.0005388259887695312,0.004382513463497162,-0.001400139182806015
1717512976718156800,7.82715673828125,0.000530242919921875,0.004301920533180237,0.003405362367630005
1717512976728163300,7.837163330078125,0.005229949951171875,-0.00048720091581344604,-0.001390937715768814
1717512976738169900,7.847169921875,0.0004329681396484375,0.004323124885559082,0.0033096857368946075
1717512976748176400,7.85717626953125,0.0004253387451171875,0.004240505397319794,-0.0014854520559310913
1717512976758183000,7.867182861328125,0.00041866302490234375,0.00415840744972229,0.0032163187861442566
1717512976768189400,7.877189453125,0.005120277404785156,-0.0006317645311355591,-0.0014743730425834656
1717512976778196000,7.887196044921875,-0.004382133483886719,-0.005342915654182434,-0.0014817900955677032
1717512976788202200,7.8972021484375,0.005107879638671875,0.00885842740535736,-0.006196882575750351
1717512976798208800,7.907208740234375,0.005023002624511719,0.003987543284893036,-0.006126001477241516
1717512976808215300,7.91721533203125,0.0049381256103515625,0.0040090009570121765,0.0033607035875320435
1717512976818221800,7.927221923828125,0.0001468658447265625,-0.010199718177318573,-0.001436665654182434
1717512976828228400,7.937228271484375,0.00014400482177734375,0.004079259932041168,0.0033662840723991394
1717512976838235000,7.94723486328125,-0.0045680999755859375,-0.0006118714809417725,0.003379449248313904
1717512976848241400,7.957241455078125,0.0002155303955078125,-0.0005164667963981628,-0.001418616622686386
1717512976858248000,7.967248046875,0.0002117156982421875,-0.0005261898040771484,0.0033846907317638397
1717512976868254500,7.97725439453125,0.0002079010009765625,0.008880466222763062,-0.0013103634119033813
1717512976878261000,7.987260986328125,0.00020313262939453125,0.004107266664505005,-0.0012186691164970398
1717512976888267500,7.997267578125,-0.004509925842285156,0.004121638834476471,0.0034766793251037598
