time,seconds_elapsed,z,y,x
1717512957021559600,0.1335595703125,-0.004254341125488281,-0.013010017573833466,-0.004501648247241974
1717512957031569700,0.143569580078125,-0.012446403503417969,-0.0033340826630592346,-0.004394665360450745
1717512957041580500,0.15358056640625,-0.0069599151611328125,-0.011983826756477356,0.004459992051124573
1717512957051592000,0.163592041015625,-0.015156745910644531,-0.011233851313591003,0.0037388503551483154
1717512957061603800,0.173603759765625,-0.013989448547363281,-0.010620437562465668,0.007615439593791962
1717512957071615700,0.18361572265625,-0.012988090515136719,-0.005667261779308319,0.002368815243244171
1717512957081625900,0.1936259765625,-0.007651329040527344,-0.010011635720729828,0.0019533634185791016
1717512957091632400,0.20363232421875,-0.0071735382080078125,-0.009541794657707214,-0.0030159316956996918
1717512957101639000,0.213638916015625,-0.0067501068115234375,-0.013742238283157349,-0.007604796439409256
1717512957111645200,0.223645263671875,-0.015418052673339844,-0.013234652578830719,-0.002920340746641159
1717512957121651700,0.233651611328125,-0.0009975433349609375,-0.0036228224635124207,-0.00766473263502121
1717512957131658000,0.243657958984375,-0.0009479522705078125,-0.008148252964019775,0.001454811543226242
1717512957141664500,0.25366455078125,-0.010023117065429688,-0.007918551564216614,-0.0035384632647037506
1717512957151670800,0.2636708984375,-0.004996299743652344,-0.003146529197692871,0.0008287206292152405
1717512957161677300,0.27367724609375,-0.00019931793212890625,-0.003168337047100067,0.005008801817893982
1717512957171683600,0.28368359375,-0.004779815673828125,-0.01237332820892334,-0.00015462934970855713
1717512957181690000,0.293690185546875,0.0000095367431640625,-0.002843819558620453,-0.0004130452871322632
1717512957191696400,0.3036962890625,-0.004595756530761719,0.0018110275268554688,-0.005368441343307495
1717512957201703000,0.313702880859375,0.00018596649169921875,-0.00302673876285553,-0.005536139011383057
1717512957211709200,0.323709228515625,-0.004437446594238281,-0.007696203887462616,-0.005706518888473511
1717512957221715700,0.3337158203125,0.0003376007080078125,-0.002866514027118683,-0.010501585900783539
1717512957231722000,0.343721923828125,-0.008931159973144531,-0.00283002108335495,-0.015047810971736908
1717512957241728500,0.353728515625,-0.004008293151855469,-0.007533416152000427,-0.0010299719870090485
1717512957251734800,0.36373486328125,0.00539398193359375,-0.007357172667980194,-0.0013675503432750702
1717512957261741300,0.3737412109375,-0.004055023193359375,-0.007295258343219757,-0.0016962364315986633
1717512957271747600,0.38374755859375,0.005358695983886719,-0.007139943540096283,0.0071764178574085236
1717512957281754000,0.393754150390625,-0.008749961853027344,-0.0069952309131622314,-0.002702580764889717
1717512957291760600,0.4037607421875,0.0008029937744140625,-0.0022045299410820007,-0.007754987105727196
1717512957301767000,0.413766845703125,-0.008536338806152344,-0.002204306423664093,-0.007814586162567139
1717512957311773400,0.4237734375,-0.003650665283203125,-0.011530779302120209,-0.012746240943670273
1717512957321779700,0.43377978515625,-0.0035581588745117188,-0.0066289156675338745,-0.01279127225279808
1717512957331786200,0.4437861328125,-0.0034704208374023438,-0.006522960960865021,-0.008175952360033989
1717512957341792500,0.45379248046875,-0.0033864974975585938,-0.001751735806465149,-0.003677239641547203
1717512957351799000,0.463799072265625,-0.0033044815063476562,-0.001872032880783081,-0.00863662175834179
1717512957361805300,0.473805419921875,0.0014486312866210938,0.002789013087749481,-0.00413147360086441
1717512957371811800,0.483811767578125,0.0014162063598632812,-0.0067956894636154175,-0.004307936877012253
1717512957381818400,0.493818359375,-0.0032978057861328125,0.002659745514392853,-0.004585361108183861
1717512957391824600,0.50382470703125,-0.0032262802124023438,-0.006825998425483704,-0.004755249246954918
1717512957401831200,0.5138310546875,-0.0031576156616210938,0.0026326701045036316,-0.019087156280875206
1717512957411837700,0.523837646484375,-0.0030918121337890625,-0.00685911625623703,-0.009685903787612915
1717512957421844200,0.53384423828125,-0.00302886962890625,-0.002087816596031189,-0.00986100547015667
1717512957431850500,0.5438505859375,0.0017251968383789062,-0.002208329737186432,-0.010036712512373924
1717512957441857000,0.55385693359375,-0.0030031204223632812,-0.0022247210144996643,-0.01480565033853054
1717512957451863600,0.563863525390625,0.001750946044921875,-0.006937980651855469,-0.01019890047609806
1717512957461869800,0.573869873046875,-0.0029802322387695312,-0.006866805255413055,-0.0009847842156887054
1717512957471876400,0.58387646484375,-0.0029249191284179688,-0.006799377501010895,-0.0013411063700914383
1717512957481883000,0.5938828125,0.0018301010131835938,-0.002137228846549988,-0.006392745301127434
1717512957491889400,0.603889404296875,0.0017986297607421875,-0.006964825093746185,-0.006653402000665665
1717512957501895700,0.613895751953125,-0.00293731689453125,-0.002301141619682312,-0.011719156056642532
1717512957511902200,0.623902099609375,0.001819610595703125,-0.0024241358041763306,-0.011994259431958199
1717512957521908700,0.63390869140625,-0.0029172897338867188,-0.011960506439208984,-0.012166140601038933
1717512957531915300,0.643915283203125,0.006549835205078125,-0.0025069862604141235,-0.017047245055437088
1717512957541921500,0.653921630859375,0.006442070007324219,-0.007336817681789398,-0.017138412222266197
1717512957551928000,0.663927978515625,-0.003082275390625,-0.01198289543390274,-0.007810868322849274
1717512957561934600,0.6739345703125,0.0016775131225585938,-0.002425752580165863,-0.003347376361489296
1717512957571940900,0.68394091796875,-0.00305938720703125,-0.0024450719356536865,-0.008375465869903564
1717512957581947400,0.693947509765625,0.00640869140625,-0.007172398269176483,-0.01321544498205185
1717512957591954000,0.703953857421875,0.006302833557128906,-0.007215827703475952,-0.013370474800467491
1717512957601960400,0.71396044921875,0.010907173156738281,-0.011967122554779053,-0.013419685885310173
1717512957611966700,0.723966796875,-0.0033998489379882812,-0.0072220489382743835,-0.01367456465959549
1717512957621973200,0.73397314453125,0.0013666152954101562,-0.0072646364569664,-0.023239145055413246
1717512957631979800,0.743979736328125,-0.00336456298828125,-0.011911861598491669,-0.013706693425774574
1717512957641986300,0.753986328125,-0.0033082962036132812,-0.0023558512330055237,-0.009144939482212067
1717512957651992600,0.76399267578125,0.010873794555664062,-0.007188126444816589,-0.009264575317502022
1717512957661999000,0.7739990234375,0.010693550109863281,-0.0025226622819900513,-0.004776870831847191
1717512957672005600,0.784005615234375,-0.0036096572875976562,-0.0073521435260772705,-0.019198359921574593
1717512957682012000,0.794011962890625,0.00115966796875,-0.002683691680431366,-0.009732183068990707
1717512957692018400,0.804018310546875,0.0011415481567382812,-0.007510237395763397,-0.01465282030403614
1717512957702025000,0.81402490234375,0.0058307647705078125,0.0019724667072296143,-0.01478392630815506
1717512957712031500,0.824031494140625,0.001026153564453125,-0.00764051079750061,-0.0102042555809021
1717512957722037800,0.834037841796875,0.005718231201171875,-0.007676072418689728,-0.01982671208679676
1717512957732044300,0.844044189453125,-0.0037937164306640625,-0.0030021965503692627,-0.010453326627612114
1717512957742050800,0.85405078125,-0.0037298202514648438,-0.007823646068572998,-0.010551199316978455
1717512957752057300,0.864057373046875,-0.0036668777465820312,-0.0031475424766540527,-0.010647440329194069
1717512957762063600,0.874063720703125,0.0011043548583984375,-0.008069336414337158,-0.010843157768249512
1717512957772070100,0.884070068359375,0.001087188720703125,-0.008097715675830841,-0.011037787422537804
1717512957782076700,0.89407666015625,0.005778312683105469,-0.003416784107685089,-0.01112484373152256
1717512957792083000,0.9040830078125,0.0009746551513671875,-0.008231297135353088,-0.016023388132452965
1717512957802089500,0.91408935546875,-0.003749847412109375,-0.008153490722179413,-0.016130603849887848
1717512957812096000,0.924095947265625,0.005730628967285156,-0.008180223405361176,-0.006818832829594612
1717512957822102500,0.9341025390625,0.0056362152099609375,-0.003497898578643799,-0.016393408179283142
1717512957832108800,0.94410888671875,0.005542755126953125,-0.0036022067070007324,-0.011682618409395218
1717512957842115300,0.954115234375,0.010160446166992188,-0.003808028995990753,-0.011758949607610703
1717512957852121900,0.964121826171875,0.005283355712890625,-0.0039071813225746155,-0.016645867377519608
1717512957862128400,0.97412841796875,-0.0042209625244140625,-0.013421863317489624,-0.012034142389893532
1717512957872134700,0.984134765625,0.005267143249511719,-0.01336098462343216,-0.012208964675664902
1717512957882141200,0.99414111328125,0.00518035888671875,-0.008592307567596436,-0.017191635444760323
1717512957892147700,1.004147705078125,0.00038623809814453125,-0.0039030984044075012,-0.01727941446006298
1717512957902154000,1.014154052734375,0.00038051605224609375,-0.008709236979484558,-0.012553883716464043
1717512957912160500,1.024160400390625,0.005084037780761719,-0.00401807576417923,-0.012512462213635445
1717512957922167000,1.0341669921875,0.00029277801513671875,-0.004217162728309631,-0.017387934029102325
1717512957932173600,1.044173583984375,0.00499725341796875,-0.0043096765875816345,-0.017370304092764854
1717512957942179800,1.054179931640625,0.00020599365234375,-0.009109251201152802,-0.00803903304040432
1717512957952186400,1.064186279296875,0.0049114227294921875,-0.004308372735977173,-0.012989072129130363
1717512957962193000,1.07419287109375,0.00012302398681640625,-0.004502400755882263,-0.017855525016784668
1717512957972199400,1.084199462890625,-0.00458526611328125,-0.014110378921031952,-0.01782902330160141
1717512957982205700,1.094205810546875,0.0002002716064453125,-0.00932939350605011,-0.013198710978031158
1717512957992212200,1.104212158203125,-0.0045108795166015625,-0.009336672723293304,-0.02277136780321598
1717512958002218800,1.11421875,-0.004433631896972656,-0.0047384947538375854,-0.017955433577299118
1717512958012225000,1.12422509765625,0.00034999847412109375,-0.004822082817554474,-0.022739112377166748
1717512958022231600,1.1342314453125,0.0050525665283203125,-0.004801027476787567,-0.017922623082995415
1717512958032238000,1.144238037109375,-0.004446983337402344,-0.009695649147033691,-0.017896108329296112
1717512958042244600,1.15424462890625,0.0003376007080078125,-0.005091279745101929,-0.013263588771224022
1717512958052251000,1.1642509765625,0.0003337860107421875,-0.0005638450384140015,-0.013417989015579224
1717512958062257400,1.17425732421875,0.0003299713134765625,-0.005528867244720459,-0.00886012427508831
1717512958072264000,1.184263916015625,0.00974273681640625,-0.010307878255844116,-0.013692168518900871
1717512958082270500,1.1942705078125,0.00016498565673828125,-0.005693487823009491,-0.01844479702413082
1717512958092276700,1.20427685546875,0.004871368408203125,-0.01046975702047348,-0.018511764705181122
1717512958102283300,1.214283203125,0.00008296966552734375,-0.010457813739776611,-0.013869021087884903
1717512958112289800,1.224289794921875,0.004792213439941406,-0.015257909893989563,-0.014012256637215614
1717512958122296000,1.234296142578125,0.00000476837158203125,-0.005748964846134186,-0.02357030287384987
1717512958132302600,1.244302490234375,0.0047149658203125,-0.005919143557548523,-0.014135770499706268
1717512958142309000,1.25430908203125,-0.0000705718994140625,-0.01079508662223816,-0.018984287977218628
1717512958152315600,1.264315673828125,-0.00006771087646484375,-0.010880962014198303,-0.009521834552288055
1717512958162322000,1.274322021484375,0.0046443939208984375,-0.006256803870201111,-0.009634288027882576
1717512958172328400,1.284328369140625,0.009278297424316406,-0.006418317556381226,-0.014453470706939697
1717512958182335000,1.2943349609375,0.009126663208007812,-0.011285938322544098,-0.019193464890122414
1717512958192341500,1.304341552734375,0.0042667388916015625,-0.006551779806613922,-0.019144747406244278
1717512958202347800,1.31434765625,-0.00051116943359375,-0.011416986584663391,-0.01920010708272457
1717512958212354300,1.324354248046875,-0.000499725341796875,-0.011492505669593811,-0.019151287153363228
1717512958222360800,1.33436083984375,-0.00048828125,-0.01156676560640335,-0.01439468003809452
1717512958232367000,1.3443671875,-0.0004787445068359375,-0.011536717414855957,-0.014530334621667862
1717512958242373600,1.35437353515625,0.004240989685058594,-0.0021930336952209473,-0.019267944619059563
1717512958252380200,1.364380126953125,-0.0005359649658203125,-0.016548074781894684,-0.014612669125199318
1717512958262386700,1.37438671875,-0.0052337646484375,-0.007120877504348755,-0.010034983977675438
1717512958272393000,1.38439306640625,0.008980751037597656,-0.011976577341556549,-0.024367980659008026
1717512958282399500,1.3943994140625,-0.000583648681640625,-0.012042753398418427,-0.019524455070495605
1717512958292406000,1.404406005859375,0.0041370391845703125,-0.007399231195449829,-0.019470252096652985
1717512958302412500,1.41441259765625,-0.0006389617919921875,-0.016958899796009064,-0.024228818714618683
1717512958312418800,1.424418701171875,-0.0006265640258789062,-0.007525041699409485,-0.0194920115172863
1717512958322425300,1.43442529296875,-0.005322456359863281,-0.012374207377433777,-0.0195427518337965
1717512958332432000,1.444431884765625,-0.0005235671997070312,-0.012433946132659912,-0.014884047210216522
1717512958342438400,1.4544384765625,-0.005219459533691406,-0.007887162268161774,-0.029032986611127853
1717512958352444700,1.464444580078125,0.0042877197265625,-0.02214747667312622,-0.019404267892241478
1717512958362451200,1.474451171875,0.004220008850097656,-0.012730211019515991,-0.014643484726548195
1717512958372457700,1.484457763671875,-0.0005559921264648438,-0.008075237274169922,-0.014670655131340027
1717512958382464000,1.494464111328125,0.004164695739746094,-0.00820663571357727,-0.019407112151384354
1717512958392470500,1.504470458984375,0.004097938537597656,-0.008335649967193604,-0.009937703609466553
1717512958402477000,1.51447705078125,-0.000675201416015625,-0.0038571730256080627,-0.019460516050457954
1717512958412483600,1.524483642578125,0.008755683898925781,-0.013475880026817322,-0.019407428801059723
1717512958422489900,1.53448974609375,-0.0008039474487304688,-0.008911751210689545,-0.024063829332590103
1717512958432496400,1.544496337890625,-0.005496025085449219,-0.018446221947669983,-0.023934032768011093
1717512958442503000,1.5545029296875,0.004016876220703125,-0.009090855717658997,-0.019098946824669838
1717512958452509400,1.564509521484375,0.0039539337158203125,-0.01401682198047638,-0.019050758332014084
1717512958462515700,1.574515625,-0.005526542663574219,-0.009340427815914154,-0.018901260569691658
1717512958472522200,1.584522216796875,-0.0007228851318359375,-0.014159172773361206,-0.018857521936297417
1717512958482528800,1.59452880859375,0.004001617431640625,-0.009583473205566406,-0.02352195791900158
1717512958492535000,1.60453515625,-0.0007696151733398438,-0.009792834520339966,-0.018692621961236
1717512958502541600,1.61454150390625,0.008664131164550781,-0.009998701512813568,-0.01875564083456993
1717512958512548000,1.624548095703125,0.008523941040039062,-0.014909952878952026,-0.018715515732765198
1717512958522554600,1.6345546875,0.0036773681640625,-0.010321952402591705,-0.013966307044029236
1717512958532561000,1.644560791015625,-0.0010890960693359375,-0.01051902025938034,-0.014004861935973167
1717512958542567400,1.6545673828125,-0.0010690689086914062,-0.010609537363052368,-0.018854646012187004
1717512958552574000,1.664573974609375,-0.0010471343994140625,-0.010802008211612701,-0.023418230935931206
1717512958562580500,1.67458056640625,0.0036830902099609375,-0.015699677169322968,-0.018590671941637993
1717512958572586800,1.684586669921875,0.0036258697509765625,-0.011098518967628479,-0.018552172929048538
1717512958582593300,1.69459326171875,0.0035696029663085938,-0.015991047024726868,-0.013701289892196655
1717512958592599800,1.704599853515625,-0.0011959075927734375,-0.02069895714521408,-0.018452893942594528
1717512958602606000,1.714606201171875,-0.0011720657348632812,-0.01601429283618927,-0.008998339995741844
1717512958612612600,1.724612548828125,-0.0058574676513671875,-0.020825088024139404,-0.013828324154019356
1717512958622619100,1.734619140625,-0.0010471343994140625,-0.011429712176322937,-0.013764772564172745
1717512958632625700,1.744625732421875,0.008391380310058594,-0.016316920518875122,-0.013703456148505211
1717512958642632000,1.7546318359375,0.008255958557128906,-0.01180875301361084,-0.013746436685323715
1717512958652638500,1.764638427734375,0.0034122467041015625,-0.011877782642841339,-0.01378871314227581
1717512958662645000,1.77464501953125,-0.0060577392578125,-0.0167575404047966,-0.02314421534538269
1717512958672651500,1.784651611328125,0.0034637451171875,-0.012138769030570984,-0.01821800321340561
1717512958682657800,1.79465771484375,0.0034093856811523438,-0.02172277867794037,-0.018082495778799057
1717512958692664300,1.804664306640625,-0.0013523101806640625,-0.017021067440509796,-0.01805133931338787
1717512958702670800,1.8146708984375,0.0033826828002929688,-0.012397915124893188,-0.01791861467063427
1717512958712677000,1.824677001953125,-0.006087303161621094,-0.012560427188873291,-0.017891379073262215
1717512958722683600,1.83468359375,-0.0012731552124023438,-0.012720219790935516,-0.01786459982395172
1717512958732690200,1.844690185546875,-0.0012483596801757812,-0.01287735253572464,-0.013129672035574913
1717512958742696700,1.85469677734375,-0.0012235641479492188,-0.013031862676143646,-0.013078996911644936
1717512958752703000,1.864702880859375,-0.0059070587158203125,-0.008578464388847351,-0.0178410392254591
1717512958762709500,1.87470947265625,-0.0058040618896484375,-0.018325090408325195,-0.017711857333779335
1717512958772716000,1.884716064453125,-0.0009946823120117188,-0.013679996132850647,-0.017686903476715088
1717512958782722600,1.89472265625,0.003734588623046875,-0.018529728055000305,-0.022372158244252205
1717512958792728800,1.904728759765625,0.0036773681640625,-0.013984709978103638,-0.017458872869610786
1717512958802735400,1.9147353515625,-0.005797386169433594,-0.014120779931545258,-0.017336079850792885
1717512958812742000,1.924741943359375,-0.005696296691894531,-0.023775041103363037,-0.017215337604284286
1717512958822748400,1.93474853515625,-0.000888824462890625,-0.019039347767829895,-0.007782677188515663
1717512958832755000,1.9447548828125,0.0038394927978515625,-0.014485619962215424,-0.01723715290427208
1717512958842761500,1.954761474609375,0.003780364990234375,-0.019425205886363983,-0.02192993275821209
1717512958852768000,1.96476806640625,-0.0009860992431640625,-0.014865271747112274,-0.02183591201901436
1717512958862774500,1.9747744140625,-0.0009641647338867188,-0.019798316061496735,-0.016930393874645233
1717512958872781000,1.984781005859375,0.0037641525268554688,-0.019837290048599243,-0.016918499022722244
1717512958882787600,1.99478759765625,0.0037059783935546875,-0.015270277857780457,-0.016906805336475372
1717512958892794000,2.004794189453125,-0.0010585784912109375,-0.015487991273403168,-0.012083448469638824
1717512958902800600,2.014800537109375,-0.00103759765625,-0.015598811209201813,-0.012049084529280663
1717512958912807000,2.024806884765625,-0.0010166168212890625,-0.015707775950431824,-0.021535756066441536
1717512958922813400,2.0348134765625,0.0037126541137695312,-0.020523525774478912,-0.0167385283857584
1717512958932820000,2.044820068359375,-0.0010538101196289062,-0.011133216321468353,-0.01672985404729843
1717512958942826500,2.054826416015625,-0.0010328292846679688,-0.01602521538734436,-0.01190945878624916
1717512958952833000,2.0648330078125,0.0036973953247070312,-0.025647535920143127,-0.016689874231815338
1717512958962839600,2.074839599609375,0.0036401748657226562,-0.020983710885047913,-0.011973418295383453
1717512958972846000,2.08484619140625,-0.005833625793457031,-0.01629433035850525,-0.01204417459666729
1717512958982852600,2.0948525390625,0.0036859512329101562,-0.021203570067882538,-0.016719084233045578
1717512958992859100,2.104859130859375,0.0036296844482421875,-0.01661379635334015,-0.011898884549736977
1717512959002865700,2.11486572265625,-0.0011339187622070312,-0.01210053265094757,-0.01657622493803501
1717512959012872200,2.1248720703125,0.003597259521484375,-0.016976632177829742,-0.016468245536088943
1717512959022878700,2.134878662109375,0.0035429000854492188,-0.026583336293697357,-0.01155020296573639
1717512959032885200,2.14488525390625,-0.0012187957763671875,-0.017195329070091248,-0.02094196155667305
1717512959042891800,2.154891845703125,-0.0011930465698242188,-0.0173809751868248,-0.016051404178142548
1717512959052898000,2.16489794921875,-0.00116729736328125,-0.022272363305091858,-0.01595219038426876
1717512959062904600,2.174904541015625,-0.0011444091796875,-0.02227012813091278,-0.015956664457917213
1717512959072911000,2.1849111328125,-0.010539054870605469,-0.022267930209636688,-0.011149195954203606
1717512959082917600,2.194917724609375,-0.0009403228759765625,-0.02236880362033844,-0.015837812796235085
1717512959092924200,2.204924072265625,-0.000919342041015625,-0.027176812291145325,-0.01103232428431511
1717512959102930400,2.214930419921875,0.008519172668457031,-0.017778903245925903,-0.015620863065123558
1717512959112937000,2.22493701171875,-0.00574493408203125,-0.022559933364391327,-0.020234953612089157
1717512959122943500,2.234943603515625,-0.005645751953125,-0.022552914917469025,-0.010647587478160858
1717512959132950000,2.244949951171875,-0.0008373260498046875,-0.017940670251846313,-0.010637206956744194
1717512959142956300,2.254956298828125,0.0038890838623046875,-0.022719234228134155,-0.015335600823163986
1717512959152962800,2.264962890625,-0.005587577819824219,-0.01810421794652939,-0.01995568536221981
1717512959162969300,2.27496923828125,0.003928184509277344,-0.01827472448348999,-0.015081578865647316
1717512959172975600,2.2849755859375,0.00386810302734375,-0.023150987923145294,-0.01028871163725853
1717512959182982100,2.294982177734375,-0.0056095123291015625,-0.01842552423477173,-0.01028432697057724
1717512959192988700,2.30498876953125,0.003902435302734375,-0.02288496494293213,-0.019481200724840164
1717512959202995200,2.3149951171875,-0.0008707046508789062,-0.01785138249397278,-0.009691836312413216
1717512959213001500,2.32500146484375,-0.0008563995361328125,-0.022214174270629883,-0.014089638367295265
1717512959223008000,2.335008056640625,-0.005549430847167969,-0.02660609781742096,-0.009101752191781998
1717512959233014500,2.3450146484375,-0.0007476806640625,-0.012089334428310394,-0.009011689573526382
1717512959243021000,2.35502099609375,0.008683204650878906,-0.016647592186927795,-0.008821509778499603
1717512959253027300,2.36502734375,-0.0008792877197265625,-0.016316749155521393,-0.018053365871310234
1717512959263033900,2.375033935546875,0.00384521484375,-0.016093462705612183,-0.013007262721657753
1717512959273040400,2.385040283203125,0.003780364990234375,-0.015769220888614655,-0.012754343450069427
1717512959283046700,2.395046630859375,-0.0009899139404296875,-0.015552535653114319,-0.012507341802120209
1717512959293053200,2.40505322265625,0.008443832397460938,-0.020047016441822052,-0.01236940547823906
1717512959303059700,2.415059814453125,-0.0058231353759765625,-0.019757002592086792,-0.007526820525527
1717512959313066200,2.425066162109375,-0.0010166168212890625,-0.01947062462568283,-0.0120792705565691
1717512959323072500,2.435072509765625,-0.0010004043579101562,-0.014376528561115265,-0.011850012466311455
1717512959333079000,2.4450791015625,-0.00098419189453125,-0.018783412873744965,-0.006916288286447525
1717512959343085600,2.45508544921875,-0.0009670257568359375,-0.013802394270896912,-0.006672803312540054
1717512959353092000,2.465092041015625,-0.005658149719238281,-0.013612255454063416,-0.011143414303660393
1717512959363098400,2.475098388671875,-0.0008544921875,-0.013424597680568695,-0.015540922060608864
1717512959373105000,2.48510498046875,-0.0008392333984375,-0.013239413499832153,-0.005843997001647949
1717512959383111400,2.495111328125,-0.000823974609375,-0.017765283584594727,-0.005727242678403854
1717512959393117700,2.50511767578125,0.0038995742797851562,-0.012797899544239044,-0.015030963346362114
1717512959403124200,2.515124267578125,-0.0008726119995117188,-0.02203848958015442,-0.009951872751116753
1717512959413130800,2.525130859375,-0.000858306884765625,-0.01689542829990387,-0.00025012530386447906
1717512959423137300,2.53513720703125,-0.0008440017700195312,-0.011940471827983856,-0.014356428757309914
1717512959433143600,2.5451435546875,0.0038785934448242188,-0.011776432394981384,-0.009498950093984604
1717512959443150000,2.555150146484375,0.008523941040039062,-0.006905980408191681,-0.013934338465332985
1717512959453156600,2.565156494140625,0.0036745071411132812,-0.006824471056461334,-0.0041700731962919235
1717512959463163100,2.5751630859375,-0.0058040618896484375,-0.011452391743659973,-0.0040902309119701385
1717512959473169400,2.58516943359375,0.0037097930908203125,-0.016002945601940155,-0.004014095291495323
1717512959483176000,2.595176025390625,0.0036468505859375,-0.02037356048822403,-0.008647842332720757
1717512959493182500,2.605182373046875,-0.0011224746704101562,-0.010648295283317566,-0.003788333386182785
1717512959503188700,2.615188720703125,-0.005812644958496094,-0.015210717916488647,-0.008429331704974174
1717512959513195300,2.6251953125,-0.005715370178222656,-0.01027940958738327,-0.012994110584259033
1717512959523201800,2.635201904296875,0.0037975311279296875,-0.01013839989900589,-0.012775328010320663
1717512959533208300,2.645208251953125,0.008441925048828125,-0.01460457593202591,-0.007852686569094658
1717512959543214600,2.655214599609375,0.00359344482421875,-0.014390498399734497,-0.007618492469191551
1717512959553221000,2.66522119140625,-0.0011739730834960938,-0.014179497957229614,-0.007389280945062637
1717512959563227600,2.6752275390625,-0.005864143371582031,-0.013868279755115509,-0.0024563949555158615
1717512959573234200,2.685234130859375,-0.005766868591308594,-0.018373340368270874,-0.0024175867438316345
1717512959583240400,2.695240478515625,-0.005671501159667969,-0.01328275352716446,-0.006987081840634346
1717512959593247000,2.7052470703125,-0.0008687973022460938,-0.013088122010231018,-0.011583752930164337
1717512959603253500,2.71525341796875,0.0038537979125976562,-0.00808446854352951,-0.011396445333957672
1717512959613259800,2.725259765625,-0.0009202957153320312,-0.012581348419189453,-0.0017974264919757843
1717512959623266300,2.735266357421875,-0.0056133270263671875,-0.007688999176025391,-0.0017767883837223053
1717512959633272800,2.74527294921875,0.0038967132568359375,-0.007483236491680145,-0.0063630081713199615
1717512959643279400,2.755279296875,-0.0008754730224609375,-0.01680077612400055,0.003252968192100525
1717512959653285600,2.76528564453125,0.0038480758666992188,-0.011837378144264221,-0.0015226639807224274
1717512959663292200,2.775292236328125,-0.0009241104125976562,-0.006956204771995544,0.00330173596739769
1717512959673298700,2.785298583984375,-0.0009069442749023438,-0.011676736176013947,-0.006081178784370422
1717512959683305200,2.79530517578125,-0.00089263916015625,-0.006695084273815155,-0.0011841580271720886
1717512959693311500,2.8053115234375,-0.0055866241455078125,-0.006607897579669952,-0.005889218300580978
1717512959703318000,2.815318115234375,0.003925323486328125,-0.01133430004119873,-0.0057062432169914246
1717512959713324500,2.825324462890625,0.0038585662841796875,-0.006358146667480469,-0.0009220950305461884
1717512959723330800,2.835330810546875,-0.0009136199951171875,-0.010985024273395538,-0.0008230097591876984
1717512959733337300,2.84533740234375,0.0038089752197265625,-0.0013060420751571655,-0.005539659410715103
1717512959743343900,2.85534375,-0.0009641647338867188,-0.015331372618675232,-0.005470201373100281
1717512959753350400,2.865350341796875,0.0037603378295898438,-0.00568293035030365,-0.0006932877004146576
1717512959763356700,2.875356689453125,-0.0010099411010742188,-0.0056125447154045105,-0.0006024129688739777
1717512959773363200,2.88536328125,0.008424758911132812,-0.019669219851493835,-0.005222741514444351
1717512959783369700,2.89536962890625,0.0035753250122070312,-0.005240492522716522,-0.0051629431545734406
1717512959793376300,2.905376220703125,-0.0011920928955078125,-0.005177803337574005,-0.005000874400138855
1717512959803382500,2.915382568359375,0.008244514465332031,-0.005116626620292664,-0.004946988075971603
1717512959813389000,2.92538916015625,0.0033979415893554688,-0.009661585092544556,-0.004790719598531723
1717512959823395600,2.9353955078125,-0.0013666152954101562,-0.009525589644908905,0.009487651288509369
1717512959833401900,2.94540185546875,-0.0013437271118164062,0.000025197863578796387,-0.00011926889419555664
1717512959843408400,2.955408447265625,-0.010739326477050781,-0.009314455091953278,-0.000046662986278533936
1717512959853415000,2.965414794921875,0.003566741943359375,-0.004476040601730347,-0.00939350575208664
1717512959863421400,2.97542138671875,0.0035085678100585938,-0.01384415477514267,-0.009168412536382675
1717512959873427700,2.985427734375,0.0034494400024414062,-0.008827172219753265,-0.004239529371261597
1717512959883434200,2.995434326171875,-0.0013179779052734375,-0.003893516957759857,-0.008913233876228333
1717512959893440800,3.005440673828125,-0.006005287170410156,-0.008460059762001038,0.0007167607545852661
1717512959903447300,3.015447265625,0.0035123825073242188,-0.013053469359874725,-0.0040427930653095245
1717512959913453600,3.02545361328125,0.0034532546997070312,-0.008049942553043365,-0.008620817214250565
1717512959923460000,3.035460205078125,-0.0013141632080078125,-0.007838502526283264,-0.0037064142525196075
1717512959933466600,3.045466552734375,-0.006001472473144531,-0.012339673936367035,-0.0036879032850265503
1717512959943473000,3.055472900390625,-0.0011930465698242188,-0.002743147313594818,-0.0036696381866931915
1717512959953479400,3.0654794921875,0.0035343170166015625,-0.002621077001094818,-0.0035504698753356934
1717512959963486000,3.07548583984375,0.0034742355346679688,-0.007209569215774536,-0.0034331679344177246
1717512959973492500,3.085492431640625,-0.001293182373046875,-0.00701335072517395,-0.003422018140554428
1717512959983498800,3.095498779296875,-0.0059814453125,-0.0021122246980667114,-0.0033086836338043213
1717512959993505300,3.10550537109375,0.0035343170166015625,-0.0067100971937179565,-0.0033003129065036774
1717512960003511800,3.11551171875,-0.0012340545654296875,-0.0018150582909584045,0.0015178509056568146
1717512960013518300,3.125518310546875,-0.005923271179199219,0.0029977932572364807,0.001546267420053482
1717512960023524600,3.135524658203125,0.00359344482421875,-0.0064993128180503845,0.0015733763575553894
1717512960033531100,3.14553125,-0.00588226318359375,-0.011129900813102722,0.001600269228219986
1717512960043537700,3.15553759765625,0.0036334991455078125,-0.010975874960422516,0.00633341446518898
1717512960053544000,3.1655439453125,0.008281707763671875,-0.0061166658997535706,-0.0032422132790088654
1717512960063550500,3.175550537109375,-0.00127410888671875,-0.001236051321029663,-0.003138601779937744
1717512960073557000,3.185556884765625,0.00345611572265625,-0.00595816969871521,-0.007849391549825668
1717512960083563500,3.1955634765625,-0.0013093948364257812,-0.010602518916130066,-0.007670599967241287
1717512960093569800,3.20556982421875,-0.0012874603271484375,-0.010358564555644989,-0.0025804340839385986
1717512960103576300,3.215576416015625,-0.0012655258178710938,-0.005411066114902496,-0.0070963650941848755
1717512960113582800,3.225582763671875,-0.0012454986572265625,-0.009964227676391602,-0.002223934978246689
1717512960123589400,3.23558935546875,-0.0012254714965820312,-0.0050249770283699036,0.0025674961507320404
1717512960133595600,3.245595703125,0.0035037994384765625,-0.009689949452877045,-0.0022433213889598846
1717512960143602200,3.255602294921875,0.0034456253051757812,-0.004758171737194061,-0.0020607560873031616
1717512960153608700,3.265608642578125,0.0033884048461914062,-0.0046178922057151794,-0.0019843652844429016
1717512960163615000,3.275614990234375,0.008040428161621094,-0.00458429753780365,-0.0020134523510932922
1717512960173621500,3.28562158203125,-0.0015096664428710938,-0.0045523494482040405,-0.0019397400319576263
1717512960183628000,3.2956279296875,0.0032243728637695312,-0.009127318859100342,0.002840377390384674
1717512960193634600,3.305634521484375,-0.006245613098144531,-0.009021759033203125,0.0028312429785728455
1717512960203640800,3.315640869140625,-0.006140708923339844,0.0004982501268386841,-0.0018873512744903564
1717512960213647400,3.3256474609375,0.0033788681030273438,-0.004163898527622223,-0.0017164722084999084
1717512960223654000,3.33565380859375,0.0033235549926757812,-0.008852511644363403,0.003055814653635025
1717512960233660400,3.345660400390625,0.007976531982421875,-0.008651971817016602,-0.0015664808452129364
1717512960243666700,3.355666748046875,-0.0015735626220703125,-0.008455559611320496,0.003304295241832733
1717512960253673200,3.365673095703125,-0.0015468597412109375,0.0011540353298187256,0.0032807886600494385
1717512960263679700,3.3756796875,-0.0015201568603515625,0.0010823309421539307,0.0032563768327236176
1717512960273686000,3.38568603515625,0.0032148361206054688,0.0010112151503562927,-0.0014775656163692474
1717512960283692500,3.395692626953125,0.0031614303588867188,-0.0036645904183387756,-0.0014254003763198853
1717512960293699000,3.405698974609375,0.003108978271484375,0.005759567022323608,0.0032298043370246887
1717512960303705600,3.41570556640625,-0.006360054016113281,-0.0038082078099250793,0.0030974000692367554
1717512960313711900,3.4257119140625,-0.0015459060668945312,0.0010121464729309082,-0.0016395598649978638
1717512960323718400,3.435718505859375,0.007898330688476562,0.0009399130940437317,-0.0015904046595096588
1717512960333725000,3.445724853515625,-0.011067390441894531,-0.0037367790937423706,0.0031650960445404053
1717512960343731500,3.4557314453125,-0.0014657974243164062,0.005789957940578461,-0.001474030315876007
1717512960353737700,3.46573779296875,-0.0014429092407226562,-0.008282102644443512,0.0032766759395599365
1717512960363744300,3.475744140625,0.007997512817382812,0.00602838397026062,-0.006282240152359009
1717512960373750800,3.485750732421875,-0.001552581787109375,0.0012653172016143799,-0.006163738667964935
1717512960383757000,3.495757080078125,-0.00152587890625,-0.003521539270877838,0.0034730173647403717
1717512960393763600,3.505763671875,-0.0015010833740234375,0.0012915879487991333,-0.0013844147324562073
1717512960403770000,3.51577001953125,-0.001476287841796875,-0.0033929795026779175,-0.001350201666355133
1717512960413776600,3.525776611328125,0.0032567977905273438,0.0014174580574035645,-0.006026282906532288
1717512960423783000,3.535782958984375,-0.0015048980712890625,-0.0033730119466781616,-0.0058136507868766785
1717512960433789400,3.54578955078125,-0.006188392639160156,0.0014365538954734802,-0.0010002963244915009
1717512960443796000,3.5557958984375,0.0033330917358398438,-0.003354780375957489,0.003731813281774521
1717512960453802500,3.565802490234375,0.003276824951171875,-0.007963284850120544,-0.005845006555318832
1717512960463808800,3.575808837890625,-0.0014867782592773438,-0.0030780956149101257,0.008383102715015411
1717512960473815300,3.585815185546875,0.003246307373046875,-0.0029832348227500916,0.003538798540830612
1717512960483821800,3.59582177734375,0.003192901611328125,0.0017150342464447021,-0.0012255944311618805
1717512960493828000,3.605828125,0.007846832275390625,0.0065415725111961365,0.003506898880004883
1717512960503834600,3.615834716796875,-0.0017023086547851562,0.0017664358019828796,-0.0013616494834423065
1717512960513841200,3.625841064453125,-0.0016736984252929688,0.0017790794372558594,-0.0013377554714679718
1717512960523847700,3.63584765625,-0.00164794921875,0.001894734799861908,0.0033948905766010284
1717512960533854000,3.64585400390625,-0.0016202926635742188,0.001904323697090149,-0.006078563630580902
1717512960543860500,3.655860595703125,0.003116607666015625,-0.002898275852203369,-0.0012676268815994263
1717512960553867000,3.665866943359375,0.0030651092529296875,0.0018986761569976807,-0.001246761530637741
1717512960563873500,3.67587353515625,0.0030117034912109375,-0.0026985034346580505,-0.001225437968969345
1717512960573879800,3.6858798828125,-0.00174713134765625,-0.007323414087295532,-0.0012056827545166016
1717512960583886300,3.69588623046875,-0.00171661376953125,-0.007266312837600708,-0.0011853836476802826
1717512960593892900,3.705892822265625,-0.0016889572143554688,-0.0023994967341423035,0.003438759595155716
1717512960603899100,3.715899169921875,0.003047943115234375,0.002385362982749939,0.0034837163984775543
1717512960613905700,3.72590576171875,-0.0017118453979492188,0.0023809969425201416,-0.001180700957775116
1717512960623912200,3.735912109375,-0.0063915252685546875,-0.007040992379188538,-0.0057663694024086
1717512960633918700,3.745918701171875,-0.0015764236450195312,-0.0021814480423927307,-0.0009627453982830048
1717512960643925000,3.755925048828125,-0.0015506744384765625,-0.0021124109625816345,-0.0010510720312595367
1717512960653931500,3.765931640625,0.0031833648681640625,-0.002045445144176483,-0.001034669578075409
1717512960663938000,3.77593798828125,0.007838249206542969,0.0027284398674964905,-0.0011208057403564453
1717512960673944600,3.785944580078125,0.0029993057250976562,0.002712830901145935,-0.0011032447218894958
1717512960683950800,3.795950927734375,-0.0017595291137695312,0.002696521580219269,0.0036226660013198853
1717512960693957400,3.805957275390625,-0.0017290115356445312,-0.006840959191322327,-0.0011473149061203003
1717512960703964000,3.8159638671875,-0.0017004013061523438,-0.0019914060831069946,0.00357949361205101
1717512960713970400,3.825970458984375,0.0030355453491210938,0.002879992127418518,-0.005897141993045807
1717512960723976700,3.835976806640625,-0.0017242431640625,-0.0017479956150054932,-0.0010899268090724945
1717512960733983200,3.845983154296875,0.0030117034912109375,0.0030140504240989685,-0.005883175879716873
1717512960743989800,3.85598974609375,0.007670402526855469,-0.006430119276046753,-0.0010759271681308746
1717512960753996300,3.865996337890625,-0.0018758773803710938,0.01263689249753952,-0.00095396488904953
1717512960764002800,3.8760029296875,-0.0018444061279296875,-0.0016788095235824585,0.0037704184651374817
1717512960774009000,3.886009033203125,0.002895355224609375,-0.0016308501362800598,0.0038118883967399597
1717512960784015600,3.896015625,0.0028467178344726562,-0.0016880631446838379,-0.0010623745620250702
1717512960794022100,3.906022216796875,0.007508277893066406,-0.00635112076997757,0.003664150834083557
1717512960804028700,3.916028564453125,0.002674102783203125,-0.006228938698768616,-0.0011052154004573822
1717512960814035200,3.92603515625,-0.002079010009765625,-0.006109856069087982,-0.0010864175856113434
1717512960824041700,3.936041748046875,0.0026645660400390625,-0.005993396043777466,0.003641746938228607
1717512960834048300,3.94604833984375,0.0026187896728515625,-0.0011712759733200073,-0.001229315996170044
1717512960844054800,3.9560546875,0.0025739669799804688,0.003673158586025238,-0.00581156462430954
1717512960854061300,3.966061279296875,0.0025310516357421875,0.0036236271262168884,-0.0009012296795845032
1717512960864067800,3.97606787109375,0.007197380065917969,-0.0011346489191055298,-0.0008845888078212738
1717512960874074400,3.986074462890625,0.007076263427734375,-0.001003079116344452,-0.0007659494876861572
1717512960884081000,3.996080810546875,-0.0024595260620117188,-0.0008742734789848328,-0.005356874316930771
1717512960894087400,4.00608740234375,-0.0024194717407226562,-0.0007489770650863647,0.00415019690990448
1717512960904094000,4.016093994140625,0.0023288726806640625,0.008790820837020874,0.004185855388641357
1717512960914100500,4.0261005859375,-0.00241851806640625,-0.0007674694061279297,-0.0004887916147708893
1717512960924106800,4.036106689453125,-0.00708770751953125,-0.0006470382213592529,-0.00048038363456726074
1717512960934113300,4.04611328125,-0.002262115478515625,-0.0005293190479278564,-0.00047134608030319214
1717512960944119800,4.056119873046875,0.002483367919921875,-0.0051236823201179504,-0.0004637688398361206
1717512960954126300,4.066126220703125,0.00244140625,-0.004933692514896393,0.004252932965755463
1717512960964132900,4.0761328125,-0.002307891845703125,0.004565760493278503,0.004285302013158798
1717512960974139400,4.086139404296875,-0.002269744873046875,-0.0002202242612838745,-0.0004952102899551392
1717512960984146000,4.09614599609375,-0.002231597900390625,-0.0002191886305809021,-0.00048796460032463074
1717512960994152400,4.10615234375,0.0072231292724609375,0.0044886767864227295,-0.005191005766391754
1717512961004159000,4.116158935546875,0.0023927688598632812,-0.0001972094178199768,-0.00029581785202026367
1717512961014165500,4.12616552734375,-0.007063865661621094,0.0045075491070747375,-0.0001914873719215393
1717512961024172000,4.136172119140625,-0.0022382736206054688,0.004527591168880463,-0.00019189715385437012
1717512961034178600,4.146178466796875,0.0072154998779296875,0.004545517265796661,-0.00019406527280807495
1717512961044185000,4.15618505859375,0.007094383239746094,-0.004855066537857056,-0.005007866770029068
1717512961054191600,4.166191650390625,0.0022668838500976562,0.000025346875190734863,-0.00011851638555526733
1717512961064198000,4.176197998046875,-0.0024805068969726562,-0.004594266414642334,0.0045852139592170715
1717512961074204400,4.186204345703125,-0.0024404525756835938,0.004987344145774841,0.004501070827245712
1717512961084211000,4.1962109375,0.002307891845703125,0.009698659181594849,0.004519708454608917
1717512961094217200,4.20621728515625,-0.0024404525756835938,-0.0045046135783195496,-0.0002747848629951477
1717512961104223700,4.2162236328125,0.002307891845703125,0.009779080748558044,-0.0002807341516017914
1717512961114230300,4.226230224609375,-0.0024394989013671875,0.0001766607165336609,0.0044210441410541534
1717512961124236800,4.23623681640625,-0.002399444580078125,0.009670130908489227,0.00433490052819252
1717512961134243000,4.2462431640625,0.007058143615722656,0.004877723753452301,-0.00035607069730758667
1717512961144249600,4.25624951171875,-0.007185935974121094,0.004871897399425507,-0.00036446377635002136
1717512961154256100,4.266256103515625,-0.0070667266845703125,0.00486387312412262,0.0043339915573596954
1717512961164262700,4.2762626953125,-0.0022411346435546875,0.004957355558872223,-0.0003606341779232025
1717512961174269000,4.28626904296875,-0.0022058486938476562,0.0003387331962585449,0.0043360888957977295
1717512961184275500,4.296275390625,-0.0021696090698242188,0.005109041929244995,0.004245162010192871
1717512961194282000,4.306281982421875,-0.0021352767944335938,0.0004843175411224365,0.004156008362770081
1717512961204288300,4.316288330078125,0.0026092529296875,0.0051452890038490295,0.004067648202180862
1717512961214294800,4.326294677734375,-0.0068511962890625,0.005121223628520966,-0.0006252117455005646
1717512961224301300,4.33630126953125,0.0026788711547851562,0.0050951093435287476,-0.0006361529231071472
1717512961234307800,4.346307861328125,-0.0020751953125,0.00035916268825531006,-0.005355089902877808
1717512961244314000,4.356314208984375,-0.0067501068115234375,0.005117252469062805,0.004129868000745773
1717512961254320600,4.366320556640625,-0.00193023681640625,0.0003767237067222595,-0.0006695576012134552
1717512961264327200,4.3763271484375,-0.0018987655639648438,0.00042165815830230713,-0.0006808452308177948
1717512961274333700,4.386333740234375,-0.0065765380859375,0.0004636719822883606,0.004016254097223282
1717512961284340000,4.396340087890625,-0.0017595291137695312,0.0005028024315834045,-0.005491066724061966
1717512961294346500,4.406346435546875,0.0029783248901367188,-0.004169493913650513,0.00880604237318039
1717512961304353000,4.41635302734375,0.007636070251464844,0.0006510689854621887,-0.005490250885486603
1717512961314359300,4.426359375,-0.0019083023071289062,0.0006805211305618286,0.004097755998373032
1717512961324365800,4.43636572265625,0.007540702819824219,0.0007073283195495605,-0.0006000474095344543
1717512961334372400,4.446372314453125,-0.0020017623901367188,0.005440153181552887,0.004094164818525314
1717512961344379000,4.45637890625,0.0027408599853515625,0.0005715265870094299,0.004001349210739136
1717512961354385200,4.46638525390625,-0.0020132064819335938,0.0005938559770584106,-0.005404021590948105
1717512961364391700,4.4763916015625,0.00743865966796875,0.0005101487040519714,-0.0006312951445579529
1717512961374398200,4.486398193359375,-0.0021028518676757812,0.0005291774868965149,-0.000646885484457016
1717512961384404700,4.49640478515625,-0.00206756591796875,0.005254998803138733,-0.0006613917648792267
1717512961394411000,4.506410888671875,-0.002033233642578125,0.0004830285906791687,0.004032786935567856
1717512961404417500,4.51641748046875,-0.0019989013671875,0.005205653607845306,0.003938999027013779
1717512961414424000,4.526424072265625,-0.0019655227661132812,0.005139663815498352,0.003847643733024597
1717512961424430300,4.536430419921875,0.007485389709472656,0.004969902336597443,0.003757718950510025
1717512961434436900,4.546436767578125,0.0026521682739257812,0.00019576400518417358,0.0037715062499046326
1717512961444443400,4.556443359375,-0.0021009445190429688,0.00020878762006759644,-0.0010258778929710388
1717512961454450000,4.566449951171875,-0.0020656585693359375,0.004928529262542725,-0.0009324736893177032
1717512961464456200,4.576456298828125,-0.006739616394042969,0.00015162676572799683,0.003765646368265152
1717512961474462700,4.586462646484375,0.0027894973754882812,0.00016147643327713013,0.0036758258938789368
1717512961484469200,4.59646923828125,-0.0019655227661132812,0.00487915426492691,0.0036917366087436676
1717512961494475800,4.606475830078125,0.0027761459350585938,0.00009971112012863159,0.0037063397467136383
1717512961504482000,4.61648193359375,-0.006687164306640625,0.004816703498363495,0.0037216320633888245
1717512961514488600,4.626488525390625,-0.0018682479858398438,0.004745736718177795,-0.0011785738170146942
1717512961524495000,4.6364951171875,-0.0018367767333984375,0.004674904048442841,-0.0011863484978675842
1717512961534501400,4.64650146484375,-0.0018062591552734375,-0.00010394304990768433,0.0035144761204719543
1717512961544508000,4.6565078125,0.007640838623046875,-0.00009506940841674805,-0.0059889741241931915
1717512961554514400,4.666514404296875,0.0028047561645507812,-0.004795394837856293,-0.0011051073670387268
1717512961564521000,4.67652099609375,-0.0019502639770507812,0.004708379507064819,-0.0010103806853294373
1717512961574527200,4.68652734375,0.0027904510498046875,-0.00007237493991851807,-0.005729254335165024
1717512961584533800,4.69653369140625,-0.001964569091796875,-0.00006514787673950195,0.003756161779165268
1717512961594540300,4.706540283203125,-0.0019330978393554688,-0.004663601517677307,-0.0009391754865646362
1717512961604546800,4.716546875,-0.0019006729125976562,0.004836477339267731,-0.0056606680154800415
1717512961614553000,4.726552978515625,-0.00186920166015625,0.0000525936484336853,-0.0007821470499038696
1717512961624559600,4.7365595703125,-0.0018377304077148438,0.004765436053276062,0.003911647945642471
1717512961634566100,4.746566162109375,-0.0018072128295898438,-0.000018067657947540283,0.0038174614310264587
1717512961644572700,4.75657275390625,-0.0017766952514648438,-0.000013068318367004395,0.0037256889045238495
1717512961654579000,4.766578857421875,0.0029611587524414062,0.004700228571891785,-0.005678638815879822
1717512961664585500,4.77658544921875,0.0029125213623046875,-0.00018571317195892334,-0.000903889536857605
1717512961674592000,4.786592041015625,-0.00655364990234375,0.009238652884960175,0.003791090101003647
1717512961684598300,4.796598388671875,0.007679939270019531,0.004483222961425781,0.003699015825986862
1717512961694604800,4.806604736328125,0.002841949462890625,-0.0049021244049072266,0.0037105418741703033
1717512961704611300,4.816611328125,0.0027942657470703125,0.009308815002441406,-0.00569453090429306
1717512961714617900,4.826617919921875,-0.00196075439453125,-0.00026073306798934937,-0.000818297266960144
1717512961724624100,4.8366240234375,0.002780914306640625,-0.00025347620248794556,0.0038741454482078552
1717512961734630700,4.846630615234375,-0.006682395935058594,0.004461966454982758,-0.0009290911257266998
1717512961744637200,4.85663720703125,0.0028448104858398438,0.0044931769371032715,-0.005652535706758499
1717512961754643700,4.866643798828125,0.007506370544433594,0.004420258104801178,0.0038282759487628937
1717512961764650000,4.87664990234375,-0.006744384765625,-0.00036040693521499634,-0.0009749531745910645
1717512961774656500,4.886656494140625,0.0074939727783203125,-0.005061767995357513,-0.0009897500276565552
1717512961784663000,4.8966630859375,0.0026597976684570312,-0.009581908583641052,-0.0009012334048748016
1717512961794669300,4.90666943359375,-0.006801605224609375,0.0047039613127708435,-0.0009176842868328094
1717512961804675800,4.91667578125,0.0027284622192382812,0.004728756844997406,0.008483126759529114
1717512961814682400,4.926682373046875,-0.002025604248046875,-0.004768215119838715,-0.0011083297431468964
1717512961824689000,4.93668896484375,-0.0019922256469726562,-0.004690244793891907,-0.0011229068040847778
1717512961834695200,4.946695068359375,-0.0019588470458984375,0.00009484589099884033,-0.0010331161320209503
1717512961844701700,4.95670166015625,0.007491111755371094,0.004799611866474152,0.0037636421620845795
1717512961854708200,4.966708251953125,0.0026569366455078125,0.00011145323514938354,-0.0010401420295238495
1717512961864714800,4.97671484375,0.002613067626953125,0.0001061558723449707,-0.0010553784668445587
1717512961874721000,4.986720947265625,0.0025691986083984375,-0.004608273506164551,-0.005675777792930603
1717512961884727600,4.9967275390625,-0.006892204284667969,0.0002753213047981262,0.0039055384695529938
1717512961894734000,5.006734130859375,-0.0020685195922851562,-0.004443593323230743,0.003806598484516144
1717512961904740400,5.016740234375,-0.0020341873168945312,0.00033304840326309204,-0.005706992000341415
1717512961914747000,5.026746826171875,0.007415771484375,0.00042407214641571045,-0.0009363219141960144
1717512961924753400,5.03675341796875,-0.0021257400512695312,0.0005128607153892517,0.003754757344722748
1717512961934760000,5.046760009765625,-0.0020914077758789062,0.005307994782924652,-0.001049622893333435
1717512961944766200,5.05676611328125,0.0026531219482421875,0.0051072463393211365,0.008351799100637436
1717512961954772700,5.066772705078125,-0.0020999908447265625,0.0003037005662918091,-0.005946498364210129
1717512961964779300,5.076779296875,-0.0020647048950195312,-0.0044206008315086365,-0.0010688342154026031
1717512961974785800,5.086785888671875,-0.0020313262939453125,0.009870670735836029,0.0036242827773094177
1717512961984792000,5.0967919921875,0.0027112960815429688,0.004985637962818146,0.00353163480758667
1717512961994798600,5.106798583984375,0.002666473388671875,-0.00452779233455658,-0.005977574735879898
1717512962004805000,5.11680517578125,-0.002086639404296875,0.0002422928810119629,0.003506198525428772
1717512962014811600,5.126811767578125,0.0026569366455078125,0.004932068288326263,0.003414839506149292
1717512962024818200,5.136818115234375,0.002613067626953125,0.004833891987800598,0.0033241547644138336
1717512962034824700,5.14682470703125,0.0025682449340820312,-0.004576951265335083,0.003236152231693268
1717512962044831000,5.1568310546875,0.0025262832641601562,0.004796117544174194,-0.0015587881207466125
1717512962054837500,5.16683740234375,0.0024843215942382812,-0.009427450597286224,0.0031436122953891754
1717512962064844000,5.176843994140625,-0.0022668838500976562,0.004940219223499298,-0.00635790079832077
1717512962074850600,5.1868505859375,0.0071868896484375,0.004941605031490326,-0.00147271528840065
1717512962084857000,5.196857177734375,-0.002349853515625,0.0001308545470237732,-0.0014795474708080292
1717512962094863600,5.206863525390625,0.0023975372314453125,0.004816502332687378,-0.0014869682490825653
1717512962104870100,5.2168701171875,0.0023584365844726562,0.000006273388862609863,0.0033179335296154022
1717512962114876700,5.226876708984375,-0.0023899078369140625,-0.00001535564661026001,0.0032322071492671967
1717512962124883200,5.23688330078125,0.00235748291015625,0.00006614625453948975,-0.0015603415668010712
1717512962134889700,5.2468896484375,0.007025718688964844,0.00014540553092956543,-0.006170358508825302
1717512962144896300,5.256896240234375,-0.0025091171264648438,0.004931852221488953,-0.0012849755585193634
1717512962154902800,5.26690283203125,-0.0024671554565429688,0.00011756271123886108,-0.001292504370212555
1717512962164909300,5.276909423828125,0.00228118896484375,0.0001949220895767212,-0.0011962465941905975
1717512962174915800,5.286915771484375,0.0022420883178710938,0.0002705305814743042,0.003607366234064102
1717512962184922000,5.296922119140625,0.0022039413452148438,0.0003444179892539978,0.0035193748772144318
1717512962194928600,5.3069287109375,0.0021657943725585938,0.0004166215658187866,0.008141744881868362
1717512962204935200,5.31693505859375,0.0021295547485351562,0.00509246438741684,-0.001541726291179657
1717512962214941700,5.326941650390625,0.002094268798828125,0.0050845667719841,-0.006148375570774078
1717512962224948200,5.3369482421875,-0.0026502609252929688,0.005076289176940918,-0.006072692573070526
1717512962234954800,5.346954833984375,0.002101898193359375,0.00035899877548217773,-0.0013927184045314789
1717512962244961300,5.356961181640625,-0.0026426315307617188,0.0004279613494873047,-0.0013968199491500854
1717512962254967800,5.3669677734375,0.011526107788085938,0.0004955306649208069,0.008017577230930328
1717512962264974300,5.376974365234375,0.0019178390502929688,-0.004250586032867432,0.0032527968287467957
1717512962274980900,5.38698095703125,0.00188446044921875,0.0007054135203361511,0.003276243805885315
1717512962284987400,5.3969873046875,0.0018529891967773438,0.0054747238755226135,-0.00611770898103714
1717512962294994000,5.406993896484375,0.0018224716186523438,-0.003962129354476929,-0.010646350681781769
1717512962305000400,5.41700048828125,0.0017919540405273438,-0.003825470805168152,-0.0056822337210178375
1717512962315007000,5.427007080078125,0.00176239013671875,0.005621768534183502,0.0038044825196266174
1717512962325013500,5.437013427734375,-0.0029773712158203125,-0.003717362880706787,-0.00570133700966835
1717512962335019800,5.447019775390625,-0.0029268264770507812,0.005725786089897156,-0.0008197315037250519
1717512962345026300,5.4570263671875,0.0018291473388671875,0.0009877905249595642,-0.0008315034210681915
1717512962355032800,5.46703271484375,0.0017976760864257812,0.0010356679558753967,-0.0008442476391792297
1717512962365039400,5.477039306640625,0.00647735595703125,0.0009784698486328125,-0.0007527172565460205
1717512962375046000,5.4870458984375,0.0016613006591796875,0.010337598621845245,-0.00066395103931427
1717512962385052200,5.49705224609375,0.0016317367553710938,0.01032903790473938,0.008737936615943909
1717512962395058700,5.50705859375,-0.00310516357421875,0.005507223308086395,-0.0008515939116477966
1717512962405065200,5.517065185546875,0.0063648223876953125,0.005369536578655243,0.008656028658151627
1717512962415071500,5.527071533203125,0.0015506744384765625,0.000523984432220459,0.0038790367543697357
1717512962425078000,5.537078125,0.0015239715576171875,0.005278110504150391,-0.0009220167994499207
1717512962435084500,5.54708447265625,0.0014972686767578125,0.00524323433637619,0.008483346551656723
1717512962445091000,5.557091064453125,0.0014705657958984375,-0.004106901586055756,-0.0011038221418857574
1717512962455097300,5.567097412109375,-0.0032634735107421875,0.005428344011306763,-0.0011144094169139862
1717512962465104000,5.577103759765625,-0.007917404174804688,0.0006773173809051514,0.003686673939228058
1717512962475110400,5.5871103515625,-0.0030765533447265625,0.0007125139236450195,0.0036987178027629852
1717512962485117000,5.597116943359375,0.0063915252685546875,0.0053512826561927795,-0.001100778579711914
1717512962495123200,5.607123291015625,-0.003131866455078125,0.0053055062890052795,0.0036987364292144775
1717512962505129700,5.617129638671875,0.006336212158203125,0.005258984863758087,0.003605850040912628
1717512962515136300,5.62713623046875,-0.003185272216796875,0.005108103156089783,-0.0010923519730567932
1717512962525142500,5.637142578125,-0.0031328201293945312,0.00035481154918670654,-0.0011059455573558807
1717512962535149000,5.647149169921875,0.0016269683837890625,0.005095124244689941,-0.0012237951159477234
1717512962545155600,5.657155517578125,-0.0031099319458007812,0.0003379061818122864,-0.00123697891831398
1717512962555162000,5.667162109375,-0.0030584335327148438,0.0003672987222671509,-0.0012504979968070984
1717512962565168400,5.67716845703125,-0.0030078887939453125,0.00039536505937576294,-0.001263294368982315
1717512962575175000,5.6871748046875,0.0017518997192382812,-0.0043904706835746765,-0.001277327537536621
1717512962585181400,5.697181396484375,-0.002986907958984375,0.0052346959710121155,-0.0011882521212100983
1717512962595188000,5.70718798828125,-0.00293731689453125,0.005177885293960571,0.003504287451505661
1717512962605194200,5.7171943359375,0.0018205642700195312,0.005120605230331421,-0.0011966153979301453
1717512962615200800,5.72720068359375,0.0064983367919921875,0.00035506486892700195,-0.0012131556868553162
1717512962625207300,5.737207275390625,0.0016813278198242188,0.005085185170173645,0.003478921949863434
1717512962635213600,5.747213623046875,0.0016527175903320312,0.0004215911030769348,-0.0013246089220046997
1717512962645220000,5.75722021484375,0.00162506103515625,0.0004400908946990967,-0.0013396479189395905
1717512962655226600,5.7672265625,-0.0031108856201171875,0.009874552488327026,0.0033540502190589905
1717512962665233200,5.777233154296875,-0.00305938720703125,0.005025036633014679,-0.0014477372169494629
1717512962675239400,5.787239501953125,0.0017004013061523438,-0.004453197121620178,-0.0013576075434684753
1717512962685246000,5.797245849609375,0.00167083740234375,0.009768210351467133,0.007940702140331268
1717512962695252500,5.80725244140625,-0.0030660629272460938,0.004917636513710022,-0.0016459561884403229
1717512962705259000,5.817259033203125,0.0016937255859375,0.004855945706367493,-0.0016544833779335022
1717512962715265300,5.827265380859375,0.0016651153564453125,0.004793994128704071,-0.0062689632177352905
1717512962725271800,5.837271728515625,0.001636505126953125,-0.004581712186336517,-0.0014923736453056335
1717512962735278300,5.8472783203125,0.006318092346191406,0.00022045522928237915,-0.0014003999531269073
1717512962745284600,5.85728466796875,-0.007912635803222656,0.004941701889038086,0.0032956935465335846
1717512962755291100,5.867291015625,0.001636505126953125,0.000167064368724823,-0.0015036799013614655
1717512962765297700,5.877297607421875,-0.0030994415283203125,0.0001788213849067688,-0.001513652503490448
1717512962775304200,5.88730419921875,0.001659393310546875,-0.004415825009346008,-0.010940182954072952
1717512962785310500,5.897310546875,-0.0030765533447265625,0.0003796219825744629,-0.0012729242444038391
1717512962795317000,5.90731689453125,0.001682281494140625,0.0004883706569671631,-0.0012852400541305542
1717512962805323500,5.917323486328125,0.0016536712646484375,0.0005943402647972107,-0.006005425006151199
1717512962815330000,5.927330078125,-0.003082275390625,0.0005942583084106445,-0.0012292154133319855
1717512962825336300,5.93733642578125,0.0016765594482421875,0.0006974637508392334,0.003467392176389694
1717512962835342800,5.9473427734375,0.00164794921875,0.0007968246936798096,-0.006039012223482132
1717512962845349400,5.957349365234375,0.006329536437988281,0.0007901117205619812,0.003551233559846878
1717512962855355600,5.967355712890625,0.0062236785888671875,0.0007835105061531067,-0.0012474395334720612
1717512962865362200,5.977362060546875,0.0014104843139648438,0.010295145213603973,-0.001256462186574936
1717512962875368700,5.98736865234375,-0.0033216476440429688,0.0007105618715286255,-0.0012653358280658722
1717512962885375200,5.997375244140625,-0.0032672882080078125,-0.003904886543750763,-0.0012729763984680176
1717512962895381500,6.007381591796875,0.0014944076538085938,0.005681075155735016,0.0034286491572856903
1717512962905388000,6.017387939453125,0.0014696121215820312,0.0008768737316131592,0.0033438578248023987
1717512962915394600,6.02739453125,-0.0032644271850585938,0.005673609673976898,0.0032614730298519135
1717512962925401000,6.037401123046875,-0.0032110214233398438,0.005678690969944,-0.006133366376161575
1717512962935407400,6.047407470703125,-0.0031576156616210938,0.005578979849815369,-0.0013485997915267944
1717512962945414000,6.057413818359375,0.0016031265258789062,0.005479477345943451,-0.001351676881313324
1717512962955420400,6.06742041015625,-0.003131866455078125,-0.00403556227684021,-0.001354701817035675
1717512962965426700,6.0774267578125,0.006337165832519531,0.005439400672912598,0.003351852297782898
1717512962975433200,6.08743310546875,-0.003185272216796875,0.005337759852409363,-0.006042100489139557
1717512962985439700,6.097439697265625,-0.007841110229492188,0.0005277246236801147,-0.001359846442937851
1717512962995446300,6.1074462890625,0.006415367126464844,0.00521358847618103,-0.005965821444988251
1717512963005452500,6.11745263671875,0.0063076019287109375,0.005214586853981018,0.003631170839071274
1717512963015459000,6.127458984375,0.0014934539794921875,0.005110844969749451,-0.0010571964085102081
1717512963025465600,6.137465576171875,0.001468658447265625,0.0003002360463142395,-0.0010621175169944763
1717512963035472100,6.14747216796875,0.006152153015136719,0.0050874799489974976,0.003745589405298233
1717512963045478400,6.157478515625,0.0013399124145507812,0.009793564677238464,-0.0010470487177371979
1717512963055485000,6.16748486328125,0.0013189315795898438,0.009607985615730286,0.003760911524295807
1717512963065491500,6.177491455078125,0.010714530944824219,0.0001102834939956665,0.008488919585943222
1717512963075498000,6.187498046875,0.0011196136474609375,-0.004625082015991211,0.0037210583686828613
1717512963085504300,6.197504150390625,-0.0083160400390625,0.004844263195991516,-0.0010706335306167603
1717512963095510800,6.2075107421875,0.005947113037109375,0.0001308843493461609,-0.0010738186538219452
1717512963105517300,6.217517333984375,-0.003570556640625,-0.004505053162574768,-0.0010770075023174286
1717512963115523600,6.227523681640625,0.00119781494140625,0.00024947524070739746,-0.0010792464017868042
1717512963125530000,6.237530029296875,-0.0035314559936523438,0.00031764060258865356,0.00362502783536911
1717512963135536600,6.24753662109375,-0.008180618286132812,0.009697958827018738,0.00364641472697258
1717512963145543200,6.257543212890625,0.0013723373413085938,0.004898481070995331,-0.001144658774137497
1717512963155549700,6.2675498046875,-0.008068084716796875,0.0048866719007492065,-0.001044251024723053
1717512963165556200,6.27755615234375,0.006191253662109375,0.00016646087169647217,0.003556501120328903
1717512963175562800,6.287562744140625,0.0013780593872070312,0.009649001061916351,-0.0012339651584625244
1717512963185569300,6.2975693359375,0.0060634613037109375,0.004847697913646698,0.003575902432203293
1717512963195575600,6.307575439453125,0.005961418151855469,0.00012480467557907104,-0.001215606927871704
1717512963205582000,6.31758203125,-0.0035562515258789062,0.0001892298460006714,-0.0012186579406261444
1717512963215588600,6.327588623046875,-0.008206367492675781,0.00025097280740737915,0.003486134111881256
1717512963225595100,6.33759521484375,-0.0033617019653320312,-0.004396907985210419,0.0033006221055984497
1717512963235601700,6.3476015625,0.0014028549194335938,0.00034489482641220093,0.00322066992521286
1717512963245608200,6.357608154296875,0.0013790130615234375,0.0051100850105285645,-0.0014636591076850891
1717512963255614700,6.36761474609375,-0.003353118896484375,0.0003777444362640381,0.0032435916364192963
1717512963265621200,6.377621337890625,0.006119728088378906,-0.004379004240036011,0.0031637921929359436
1717512963275627800,6.387627685546875,0.0013103485107421875,0.0003587976098060608,-0.0014174096286296844
1717512963285634300,6.39763427734375,0.00128936767578125,0.00030904263257980347,-0.006025549024343491
1717512963295640800,6.407640869140625,0.005976676940917969,0.0002585500478744507,-0.0012426525354385376
1717512963305647400,6.4176474609375,0.00116729736328125,0.0003108382225036621,-0.0012493878602981567
1717512963315654000,6.42765380859375,0.010563850402832031,0.005069911479949951,-0.005964905023574829
1717512963325660400,6.437660400390625,0.005680084228515625,0.0002282261848449707,-0.0010816119611263275
1717512963335666700,6.447666748046875,-0.0038318634033203125,0.009695403277873993,-0.0009885355830192566
1717512963345673200,6.457673095703125,-0.0037689208984375,0.0048780664801597595,-0.001000523567199707
1717512963355679700,6.4676796875,0.005710601806640625,0.00014010071754455566,0.0035927966237068176
1717512963365686300,6.477686279296875,0.0009069442749023438,0.004897378385066986,0.0036073774099349976
1717512963375692800,6.48769287109375,0.0055999755859375,0.004865854978561401,0.0036215633153915405
1717512963385699300,6.49769921875,-0.003911018371582031,-0.004581950604915619,0.0035332143306732178
1717512963395705900,6.507705810546875,0.005570411682128906,0.0002512410283088684,-0.0012635551393032074
1717512963405712400,6.51771240234375,0.0007686614990234375,0.00029434263706207275,-0.0011686161160469055
1717512963415719000,6.527718994140625,-0.0039539337158203125,0.0004390701651573181,0.0036332160234451294
1717512963425725400,6.537725341796875,0.0008192062377929688,0.009895674884319305,-0.0011644847691059113
1717512963435732000,6.54773193359375,0.010221481323242188,0.005066923797130585,-0.0011739060282707214
1717512963445738500,6.557738525390625,0.00063323974609375,0.00031729042530059814,0.00823286920785904
1717512963455745000,6.5677451171875,0.000621795654296875,0.00035443902015686035,-0.006060272455215454
1717512963465751600,6.57775146484375,-0.004097938537597656,0.0003899708390235901,-0.0012809596955776215
1717512963475758000,6.587758056640625,0.0053863525390625,0.005236215889453888,-0.0011857599020004272
1717512963485764400,6.597764404296875,-0.004119873046875,0.00037651509046554565,-0.0010933279991149902
1717512963495771000,6.60777099609375,0.0053653717041015625,0.0004083365201950073,0.0036016516387462616
1717512963505777400,6.61777734375,-0.00885009765625,0.00043902546167373657,-0.0010947659611701965
1717512963515784000,6.627783935546875,0.000713348388671875,0.009885795414447784,-0.00110689178109169
1717512963525790500,6.63779052734375,-0.008715629577636719,0.0003393441438674927,-0.001120109111070633
1717512963535796700,6.647796630859375,-0.0038623809814453125,-0.004340402781963348,-0.001236695796251297
1717512963545803300,6.65780322265625,-0.0037975311279296875,0.009787894785404205,-0.0012483075261116028
1717512963555809800,6.667809814453125,0.0009746551513671875,0.009657159447669983,0.003551926463842392
1717512963565816000,6.677816162109375,0.000957489013671875,0.00021361559629440308,0.0035633407533168793
1717512963575822600,6.687822509765625,0.005650520324707031,0.00024025887250900269,-0.0011342503130435944
1717512963585829000,6.6978291015625,0.0008478164672851562,-0.004442133009433746,0.003560353070497513
1717512963595835600,6.707835693359375,0.0008335113525390625,-0.0043402016162872314,0.008176304399967194
1717512963605842000,6.717842041015625,0.0008192062377929688,-0.004240773618221283,-0.006118252873420715
1717512963615848400,6.727848388671875,0.0008068084716796875,0.0004607066512107849,-0.0013413503766059875
1717512963625855000,6.73785498046875,0.00079345703125,-0.008938662707805634,-0.001352660357952118
1717512963635861500,6.747861572265625,-0.008636474609375,0.005359217524528503,-0.0012607797980308533
1717512963645867800,6.75786767578125,0.0056324005126953125,0.0006861388683319092,-0.0011715441942214966
1717512963655874300,6.767874267578125,0.0008296966552734375,0.0006954595446586609,-0.0010829195380210876
1717512963665880800,6.777880859375,-0.0038938522338867188,0.0007034614682197571,-0.0059110745787620544
1717512963675887000,6.78788720703125,0.0008792877197265625,0.0007101818919181824,-0.005846962332725525
1717512963685893600,6.7978935546875,-0.0038442611694335938,0.01013287901878357,-0.0010753832757472992
1717512963695900200,6.807900146484375,0.0009279251098632812,0.0005630403757095337,0.008325230330228806
1717512963705906700,6.81790673828125,-0.0037965774536132812,-0.004139751195907593,0.008151959627866745
1717512963715913000,6.827912841796875,-0.0037336349487304688,0.005360603332519531,0.0032729879021644592
1717512963725919500,6.83791943359375,0.00103759765625,0.005284443497657776,-0.0015246383845806122
1717512963735926000,6.847926025390625,0.0010204315185546875,0.0005000084638595581,-0.0015336386859416962
1717512963745932500,6.8579326171875,-0.003704071044921875,0.00039971619844436646,-0.0015423856675624847
1717512963755938800,6.867938720703125,-0.0036420822143554688,0.00040353089570999146,0.0031577683985233307
1717512963765945300,6.8779453125,0.0011281967163085938,0.0050117820501327515,-0.006346002221107483
1717512963775952000,6.887951904296875,-0.0035991668701171875,0.00022857636213302612,-0.00627392902970314
1717512963785958400,6.89795849609375,0.005878448486328125,-0.009183503687381744,-0.006203059107065201
1717512963795964700,6.907964599609375,-0.0036363601684570312,0.0003943592309951782,0.003387726843357086
1717512963805971200,6.91797119140625,-0.0035753250122070312,0.0003948137164115906,-0.006118692457675934
1717512963815977700,6.927977783203125,0.0011930465698242188,-0.0043134912848472595,0.003472350537776947
1717512963825984000,6.93798388671875,0.0011730194091796875,0.00047347694635391235,0.0033820532262325287
1717512963835990500,6.947990478515625,-0.0035552978515625,0.0051801130175590515,-0.0060189031064510345
1717512963845997000,6.9579970703125,0.0012121200561523438,0.0003903210163116455,-0.0012412816286087036
1717512963856003600,6.968003662109375,-0.0035161972045898438,0.009702518582344055,0.0034571103751659393
1717512963866009900,6.978009765625,0.001251220703125,-0.004580475389957428,-0.001236308366060257
1717512963876016400,6.988016357421875,0.005938529968261719,0.0002090930938720703,-0.0011415183544158936
1717512963886023000,6.99802294921875,0.0011320114135742188,0.004815340042114258,-0.0011512376368045807
1717512963896029400,7.008029541015625,0.0011138916015625,-0.00007292628288269043,-0.0010581500828266144
1717512963906035700,7.01803564453125,-0.0036134719848632812,0.0046406760811805725,0.00363902747631073
1717512963916042200,7.028042236328125,0.005864143371582031,-0.00014149397611618042,-0.0011589452624320984
1717512963926048800,7.038048828125,0.0010576248168945312,-0.004843913018703461,0.00354057177901268
1717512963936055000,7.048054931640625,-0.0036687850952148438,0.004657931625843048,-0.005963724106550217
1717512963946061600,7.0580615234375,-0.0083160400390625,-0.0001246035099029541,-0.0057898350059986115
1717512963956068000,7.068068115234375,0.001239776611328125,-0.00011823326349258423,-0.0009089857339859009
1717512963966074600,7.07807470703125,0.0012187957763671875,0.004596494138240814,0.0037864483892917633
1717512963976081000,7.088080810546875,-0.008218765258789062,0.004524722695350647,-0.0010123960673809052
1717512963986087400,7.09808740234375,0.00133514404296875,-0.0002544522285461426,0.003685940057039261
1717512963996094000,7.108093994140625,-0.0033960342407226562,-0.0002450719475746155,-0.0010086968541145325
1717512964006100500,7.1181005859375,0.006077766418457031,-0.0002351030707359314,-0.0010187216103076935
1717512964016106800,7.128106689453125,0.0012674331665039062,-0.004933521151542664,-0.0010285638272762299
1717512964026113300,7.13811328125,0.005954742431640625,0.004572540521621704,-0.005642544478178024
1717512964036119800,7.148119873046875,0.0011463165283203125,-0.00010199099779129028,0.003841761499643326
1717512964046126000,7.1581259765625,0.0011272430419921875,-0.00009296834468841553,0.008459273725748062
1717512964056132600,7.168132568359375,-0.00830841064453125,-0.00008378922939300537,-0.005834713578224182
1717512964066139100,7.17813916015625,0.005955696105957031,0.0046341195702552795,-0.0010562576353549957
1717512964076145700,7.188145751953125,0.0011491775512695312,-0.00495542585849762,0.0036423727869987488
1717512964086152000,7.19815185546875,0.0011301040649414062,-0.00015581399202346802,-0.0011546947062015533
1717512964096158500,7.208158447265625,-0.003597259521484375,-0.00014452636241912842,0.00364849716424942
1717512964106165000,7.2181650390625,0.0011720657348632812,-0.0002364814281463623,0.0035595595836639404
1717512964116171500,7.228171630859375,-0.0035562515258789062,-0.00493159145116806,0.0034729205071926117
1717512964126177800,7.238177734375,0.0012111663818359375,-0.0048396289348602295,-0.0013210475444793701
1717512964136184300,7.248184326171875,0.0058994293212890625,0.004667818546295166,-0.005932968109846115
1717512964146190800,7.25819091796875,0.005801200866699219,0.004599809646606445,-0.0011542551219463348
1717512964156197000,7.268197021484375,0.005705833435058594,0.004429802298545837,-0.0011638961732387543
1717512964166203600,7.27820361328125,0.0009021759033203125,-0.000342540442943573,0.0035351403057575226
1717512964176210200,7.288210205078125,0.005596160888671875,-0.00032623857259750366,-0.0011571049690246582
1717512964186216700,7.298216796875,0.0007944107055664062,0.0043980032205581665,0.0036450475454330444
1717512964196223000,7.308222900390625,-0.0039272308349609375,0.0043347179889678955,0.003554143011569977
1717512964206229500,7.3182294921875,-0.0038614273071289062,-0.00514424592256546,-0.005951493978500366
1717512964216236000,7.328236083984375,0.000911712646484375,0.004369206726551056,-0.0010696575045585632
1717512964226242600,7.33824267578125,0.000896453857421875,-0.00040169060230255127,0.003627520054578781
1717512964236248800,7.348248779296875,0.000881195068359375,0.004324197769165039,-0.0010675601661205292
1717512964246255400,7.35825537109375,-0.0038423538208007812,0.004262745380401611,0.0036294758319854736
1717512964256262000,7.368261962890625,-0.008487701416015625,-0.0005058944225311279,0.0034373030066490173
1717512964266268400,7.378268310546875,0.0010709762573242188,-0.0004868432879447937,0.0033506080508232117
1717512964276275000,7.38827490234375,0.0010519027709960938,0.004344150424003601,-0.001442238688468933
1717512964286281500,7.398281494140625,0.0010347366333007812,-0.0004262775182723999,-0.006156172603368759
1717512964296287700,7.408287841796875,0.0010175704956054688,-0.009825825691223145,-0.0060828812420368195
1717512964306294300,7.418294189453125,0.0010004043579101562,-0.0002343878149986267,0.0034064650535583496
1717512964316300800,7.42830078125,-0.008433341979980469,-0.0049286335706710815,0.003423865884542465
1717512964326307300,7.438307373046875,0.001125335693359375,-0.00023081153631210327,0.003337804228067398
1717512964336313900,7.44831396484375,0.00110626220703125,-0.00021626055240631104,0.0033575929701328278
1717512964346320400,7.4583203125,-0.0036211013793945312,0.004506200551986694,0.008084755390882492
1717512964356327000,7.468326904296875,0.005856513977050781,0.004441291093826294,-0.0013925619423389435
1717512964366333400,7.47833349609375,0.001049041748046875,-0.00022792071104049683,0.0034139417111873627
1717512964376340000,7.488340087890625,0.005740165710449219,0.004494473338127136,0.0033284761011600494
1717512964386346500,7.498346435546875,-0.003772735595703125,0.004429556429386139,-0.0014641620218753815
1717512964396353000,7.50835302734375,0.005707740783691406,0.009074024856090546,-0.0013650432229042053
1717512964406359600,7.518359619140625,-0.0038042068481445312,0.004223302006721497,-0.0012686364352703094
1717512964416366000,7.528365966796875,-0.0037412643432617188,0.004162192344665527,-0.0059848204255104065
1717512964426372600,7.53837255859375,0.0010290145874023438,0.004205383360385895,-0.005810510367155075
1717512964436379000,7.54837890625,0.0010118484497070312,-0.0005645975470542908,-0.0009308084845542908
1717512964446385400,7.558385498046875,-0.0037136077880859375,-0.0005468130111694336,-0.0008412376046180725
1717512964456392000,7.568391845703125,0.001056671142578125,0.0041789039969444275,-0.005462002009153366
1717512964466398500,7.5783984375,0.0010395050048828125,-0.0005913525819778442,-0.005296453833580017
1717512964476405000,7.588405029296875,0.0010223388671875,-0.0005743205547332764,-0.0005297213792800903
1717512964486411500,7.59841162109375,0.005713462829589844,0.004150964319705963,-0.00044712796807289124
1717512964496418000,7.60841796875,-0.0037984848022460938,0.0040880367159843445,0.004341244697570801
1717512964506424600,7.618424560546875,0.0009737014770507812,-0.000682532787322998,0.008947033435106277
1717512964516431000,7.62843115234375,-0.0037508010864257812,0.00875132530927658,0.004057314246892929
1717512964526437600,7.638437744140625,-0.0036878585815429688,0.003902032971382141,-0.0007504932582378387
1717512964536444200,7.648444091796875,0.0010824203491210938,-0.005575515329837799,0.008646979928016663
1717512964546450700,7.65845068359375,-0.0036439895629882812,0.00864698737859726,-0.000844959169626236
1717512964556457200,7.668457275390625,-0.0035829544067382812,-0.0009110122919082642,-0.0007622353732585907
1717512964566463700,7.678463623046875,0.0011844635009765625,-0.010310165584087372,-0.0008882544934749603
1717512964576470300,7.68847021484375,-0.003543853759765625,0.003989867866039276,-0.0009096860885620117
1717512964586476500,7.6984765625,-0.0034847259521484375,0.003925710916519165,-0.005639161914587021
1717512964596483000,7.708483154296875,-0.0034265518188476562,-0.0008468180894851685,-0.0008744411170482635
1717512964606489600,7.718489501953125,-0.0033693313598632812,-0.0008316561579704285,-0.0007952265441417694
1717512964616496000,7.72849609375,0.0013942718505859375,0.003994695842266083,-0.0007180981338024139
1717512964626502700,7.738502685546875,0.006079673767089844,-0.0007794946432113647,-0.0007445402443408966
1717512964636509200,7.74850927734375,0.0012693405151367188,-0.005475379526615143,-0.0006697103381156921
1717512964646515500,7.758515380859375,0.0012483596801757812,0.004032351076602936,0.004111766815185547
1717512964656522000,7.76852197265625,-0.0034818649291992188,0.0040676891803741455,0.004105273634195328
1717512964666528500,7.778528564453125,0.0012845993041992188,0.003998324275016785,-0.0007146820425987244
1717512964676535000,7.78853515625,-0.0034465789794921875,0.0040329694747924805,-0.005454957485198975
1717512964686541300,7.798541259765625,-0.0033893585205078125,-0.0007452964782714844,-0.0005963779985904694
1717512964696547800,7.8085478515625,-0.0033330917358398438,0.003972835838794708,0.004077345132827759
1717512964706554400,7.818554443359375,-0.0032777786254882812,0.003903299570083618,-0.005453161895275116
1717512964716561000,7.828560791015625,0.0014848709106445312,-0.0007708221673965454,-0.0005962401628494263
1717512964726567200,7.838567138671875,0.0014600753784179688,-0.0007621794939041138,-0.005237892270088196
1717512964736573700,7.84857373046875,-0.0032720565795898438,-0.0008574202656745911,-0.000488676130771637
1717512964746580200,7.858580322265625,0.0014905929565429688,0.003860361874103546,-0.00523613765835762
1717512964756586500,7.86858642578125,-0.00324249267578125,-0.0009181201457977295,-0.0004875585436820984
1717512964766593000,7.878593017578125,0.0015201568603515625,0.003799811005592346,0.004284955561161041
1717512964776599600,7.888599609375,0.0014934539794921875,0.008438698947429657,0.004062570631504059
1717512964786606000,7.898606201171875,0.001468658447265625,0.003583058714866638,0.0040513575077056885
1717512964796612400,7.9086123046875,0.0014438629150390625,0.003516167402267456,-0.00548124685883522
1717512964806619000,7.918618896484375,-0.0032901763916015625,-0.0011553019285202026,-0.0006259270012378693
1717512964816625400,7.92862548828125,0.0014734268188476562,-0.0011439844965934753,0.004148468375205994
1717512964826632000,7.9386318359375,-0.0032596588134765625,0.003575369715690613,0.004031408578157425
1717512964836638200,7.94863818359375,0.0062122344970703125,-0.0012015029788017273,-0.0007922761142253876
1717512964846644700,7.958644775390625,0.006108283996582031,-0.0058991312980651855,-0.0008269399404525757
1717512964856651300,7.9686513671875,0.0012969970703125,-0.0009983628988265991,0.0038476064801216125
1717512964866657500,7.978657470703125,-0.0034332275390625,-0.00099153071641922,-0.0009728968143463135
1717512964876664000,7.9886640625,0.0013322830200195312,-0.0009851977229118347,0.003807518631219864
1717512964886670600,7.998670654296875,-0.003398895263671875,-0.005687542259693146,0.0036974847316741943
