time,seconds_elapsed,z,y,x
1715439369895681300,0.127681396484375,0.17589187622070312,0.005565166473388672,0.010126978158950806
1715439369905664300,0.137664306640625,0.10780525207519531,-0.025712013244628906,0.020341023802757263
1715439369915682000,0.14768212890625,0.011927604675292969,-0.047072410583496094,0.05232996493577957
1715439369925732000,0.157732177734375,-0.045393943786621094,-0.03201770782470703,0.05585218966007233
1715439369935812000,0.16781201171875,-0.17496490478515625,-0.026276111602783203,0.05581866204738617
1715439369945917400,0.17791748046875,-0.23101425170898438,-0.027854442596435547,0.06988725811243057
1715439369956043300,0.188043212890625,-0.16931533813476562,-0.03154277801513672,-0.03437666594982147
1715439369966184000,0.198183837890625,-0.12630462646484375,-0.056210994720458984,-0.07914505898952484
1715439369976333600,0.20833349609375,-0.12270069122314453,-0.060921669006347656,-0.03082147240638733
1715439369986486000,0.218486083984375,-0.12006378173828125,0.012240886688232422,-0.048196107149124146
1715439369996559000,0.22855908203125,-0.10925960540771484,0.046192169189453125,-0.06909912824630737
1715439370006565000,0.238565185546875,-0.07654953002929688,0.010439395904541016,-0.01567453145980835
1715439370016571100,0.248571044921875,-0.06370258331298828,-0.03289079666137695,-0.0045592933893203735
1715439370026577200,0.2585771484375,-0.019310951232910156,-0.028857707977294922,0.0023618191480636597
1715439370036583000,0.2685830078125,0.009700775146484375,-0.0025305747985839844,-0.04082109034061432
1715439370046589000,0.2785888671875,0.00559234619140625,-0.0005922317504882812,0.004460886120796204
1715439370056595000,0.288594970703125,-0.026091575622558594,-0.02617025375366211,0.04713570326566696
1715439370066600700,0.2986005859375,-0.015563011169433594,-0.07780027389526367,0.08725006133317947
1715439370076606700,0.308606689453125,0.040457725524902344,-0.07645130157470703,0.0965241938829422
1715439370086612700,0.31861279296875,0.15472412109375,-0.047580718994140625,0.06659713387489319
1715439370096618500,0.328618408203125,0.22414779663085938,-0.011248111724853516,0.05487015098333359
1715439370106624500,0.33862451171875,0.22283077239990234,0.022593021392822266,0.04759419709444046
1715439370116630500,0.348630615234375,0.1482381820678711,0.031063556671142578,-0.07055622339248657
1715439370126636300,0.35863623046875,0.071624755859375,0.025009632110595703,-0.15275068581104279
1715439370136642300,0.368642333984375,0.006236076354980469,-0.01268148422241211,-0.06967958062887192
1715439370146648300,0.3786484375,0.011910438537597656,-0.052901268005371094,-0.006614707410335541
1715439370156654300,0.388654296875,0.13370513916015625,-0.049883365631103516,0.02407677471637726
1715439370166660000,0.39866015625,0.2621622085571289,-0.038548946380615234,0.004342362284660339
1715439370176666000,0.408666015625,0.3416748046875,-0.043032169342041016,-0.00035925954580307007
1715439370186672000,0.418672119140625,0.3506622314453125,-0.030989646911621094,0.013396047055721283
1715439370196678000,0.428677978515625,0.2862071990966797,-0.012156486511230469,0.04939869046211243
1715439370206684000,0.438683837890625,0.2009897232055664,-0.023334026336669922,0.06022673845291138
1715439370216690000,0.44868994140625,0.1697235107421875,-0.01159811019897461,0.03665561228990555
1715439370226695700,0.45869580078125,0.11613082885742188,0.004092693328857422,-0.011368758976459503
1715439370236701700,0.46870166015625,0.04056262969970703,0.028521060943603516,-0.04552236944437027
1715439370246707700,0.478707763671875,-0.028827667236328125,-0.0034046173095703125,-0.05157677084207535
1715439370256713700,0.488713623046875,-0.06881427764892578,-0.038962364196777344,-0.029290325939655304
1715439370266719500,0.498719482421875,-0.08942604064941406,-0.04061317443847656,-0.010950736701488495
1715439370276725500,0.5087255859375,-0.07712554931640625,-0.04170703887939453,-0.006424136459827423
1715439370286731500,0.5187314453125,-0.027837753295898438,-0.037657737731933594,-0.030276238918304443
1715439370296737300,0.5287373046875,-0.0219268798828125,-0.024051666259765625,-0.006263110786676407
1715439370306743300,0.538743408203125,-0.03516578674316406,-0.014967918395996094,0.06028258800506592
1715439370316749300,0.548749267578125,-0.048206329345703125,-0.03884553909301758,0.07519127428531647
1715439370326755000,0.558755126953125,-0.061011314392089844,-0.02000141143798828,0.016046572476625443
1715439370336761000,0.568760986328125,-0.10184764862060547,0.007975578308105469,-0.046248797327280045
1715439370346767000,0.57876708984375,-0.15158653259277344,0.021700382232666016,-0.09875430166721344
1715439370356772900,0.58877294921875,-0.17263126373291016,0.031112194061279297,-0.09930133819580078
1715439370366779000,0.59877880859375,-0.17505550384521484,0.031856536865234375,-0.020023509860038757
1715439370376785000,0.608784912109375,-0.10245132446289062,0.009518623352050781,0.0018338188529014587
1715439370386791000,0.618791015625,-0.05919647216796875,-0.03153514862060547,-0.004512157291173935
1715439370396796700,0.628796630859375,-0.03991222381591797,-0.044200897216796875,0.03234143927693367
1715439370406802700,0.638802734375,0.03606605529785156,-0.02458953857421875,0.0598163865506649
1715439370416808700,0.64880859375,0.09240341186523438,-0.01552724838256836,0.02111729420721531
1715439370426814700,0.658814697265625,0.07732200622558594,0.007242679595947266,-0.03179384022951126
1715439370436820700,0.66882080078125,0.029270172119140625,0.0112457275390625,-0.06661571562290192
1715439370446826800,0.67882666015625,-0.008923530578613281,-0.02656698226928711,-0.026147659868001938
1715439370456832800,0.688832763671875,-0.023446083068847656,-0.053435325622558594,-0.004919338971376419
1715439370466838800,0.6988388671875,0.008902549743652344,-0.07904672622680664,-0.006986124441027641
1715439370476844800,0.7088447265625,0.026386260986328125,-0.05207633972167969,-0.03137071803212166
1715439370486850600,0.7188505859375,0.05745506286621094,-0.01568889617919922,-0.07292720675468445
1715439370496856600,0.728856689453125,0.07383251190185547,0.006055355072021484,-0.1085171326994896
1715439370506862600,0.738862548828125,0.06634712219238281,0.027526378631591797,-0.06775102019309998
1715439370516868600,0.74886865234375,0.04957008361816406,0.006262302398681641,-0.008880164474248886
1715439370526874600,0.75887451171875,0.033275604248046875,-0.024425029754638672,0.0011817477643489838
1715439370536880600,0.768880615234375,0.022164344787597656,-0.03612804412841797,0.038792602717876434
1715439370546886700,0.77888671875,0.0302734375,-0.010329246520996094,0.03730349242687225
1715439370556892700,0.788892578125,0.024221420288085938,0.038401126861572266,-0.0027629584074020386
1715439370566898700,0.798898681640625,0.013505935668945312,0.07228279113769531,0.003451213240623474
1715439370576904700,0.80890478515625,0.021749496459960938,0.0444788932800293,0.03645302355289459
1715439370586910500,0.818910400390625,0.02540302276611328,-0.006850719451904297,0.08290146291255951
1715439370596916500,0.82891650390625,-0.013126373291015625,-0.010684967041015625,0.06331982463598251
1715439370606922500,0.838922607421875,-0.032227516174316406,0.02801370620727539,0.03109215945005417
1715439370616928500,0.848928466796875,-0.01820087432861328,0.023961544036865234,-0.04214305430650711
1715439370626934500,0.8589345703125,0.019136428833007812,0.01056051254272461,-0.07992660254240036
1715439370636940500,0.8689404296875,0.041932106018066406,-0.0029768943786621094,-0.0821065828204155
1715439370646946600,0.878946533203125,0.02698516845703125,-0.021535873413085938,-0.06378953158855438
1715439370656952600,0.88895263671875,-0.0017337799072265625,-0.011713504791259766,-0.12474894523620605
1715439370666958600,0.89895849609375,-0.053818702697753906,0.0173187255859375,-0.22259172797203064
1715439370676964600,0.908964599609375,-0.13906288146972656,0.02892017364501953,-0.2688036561012268
1715439370686970400,0.918970458984375,-0.11596107482910156,-0.013748645782470703,-0.17043262720108032
1715439370696976400,0.928976318359375,0.009531021118164062,-0.04484891891479492,-0.056524746119976044
1715439370706982400,0.938982421875,0.1330862045288086,-0.02861166000366211,-0.039176248013973236
1715439370716988400,0.948988525390625,0.16583251953125,0.037891387939453125,-0.035763707011938095
1715439370726994400,0.958994384765625,0.16122817993164062,0.07821273803710938,-0.03152821213006973
1715439370737000400,0.96900048828125,0.10095500946044922,0.08354854583740234,-0.12129640579223633
1715439370747006500,0.97900634765625,0.0136871337890625,0.06950616836547852,-0.15370973944664001
1715439370757012500,0.989012451171875,-0.03010272979736328,0.04690980911254883,-0.07314929366111755
1715439370767018500,0.9990185546875,-0.031240463256835938,0.001960277557373047,-0.03200023993849754
1715439370777024300,1.009024169921875,0.0053119659423828125,-0.042238712310791016,0.008795809000730515
1715439370787030300,1.0190302734375,0.03204345703125,-0.07664060592651367,0.03577154502272606
1715439370797036300,1.029036376953125,0.0395965576171875,-0.07768630981445312,0.006458668038249016
1715439370807042300,1.039042236328125,0.009202957153320312,-0.031355857849121094,-0.037021785974502563
1715439370817048300,1.04904833984375,-0.021238327026367188,-0.022472381591796875,-0.009910279884934425
1715439370827054300,1.059054443359375,0.037840843200683594,-0.050591468811035156,0.039570651948451996
1715439370837060400,1.069060302734375,0.1525421142578125,-0.06429338455200195,0.07950305938720703
1715439370847066400,1.07906640625,0.2284708023071289,-0.05095863342285156,0.06350255757570267
1715439370857072400,1.089072265625,0.29501914978027344,-0.0025277137756347656,0.03930690884590149
1715439370867078400,1.099078369140625,0.2866230010986328,0.04238128662109375,0.016058117151260376
1715439370877084200,1.109084228515625,0.14296817779541016,0.06091499328613281,-0.030698860064148903
1715439370887090200,1.119090087890625,-0.040317535400390625,0.054963111877441406,-0.0497436597943306
1715439370897096200,1.12909619140625,-0.20677661895751953,0.040328025817871094,-0.05631684511899948
1715439370907102200,1.139102294921875,-0.2771425247192383,0.018059730529785156,-0.036176957190036774
1715439370917108200,1.149108154296875,-0.2294759750366211,0.021244525909423828,-0.03654160723090172
1715439370927114200,1.1591142578125,-0.12670040130615234,0.02546215057373047,-0.03819384425878525
1715439370937120300,1.169120361328125,-0.021177291870117188,0.02064657211303711,-0.058632154017686844
1715439370947126300,1.179126220703125,0.06871604919433594,0.03429698944091797,-0.08279668539762497
1715439370957132300,1.18913232421875,0.12009716033935547,0.02300548553466797,-0.09621939063072205
1715439370967138300,1.19913818359375,0.06763648986816406,0.015528678894042969,-0.12302422523498535
1715439370977144000,1.20914404296875,-0.035742759704589844,0.01288747787475586,-0.12590157985687256
1715439370987150000,1.219150146484375,-0.12848472595214844,-0.0076389312744140625,-0.12406334280967712
1715439370997156000,1.229156005859375,-0.20190143585205078,-0.0070896148681640625,-0.15576784312725067
1715439371007162000,1.239162109375,-0.19054794311523438,-0.027924537658691406,-0.0788249522447586
1715439371017168100,1.249168212890625,-0.0861654281616211,-0.051405906677246094,0.02118486538529396
1715439371027174100,1.259174072265625,0.03982067108154297,-0.05059242248535156,0.021603934466838837
1715439371037180200,1.26918017578125,0.1405172348022461,-0.03158855438232422,-0.0007223151624202728
1715439371047186200,1.279186279296875,0.22616291046142578,-0.009547233581542969,0.02044447883963585
1715439371057192200,1.289192138671875,0.2642965316772461,-0.003807544708251953,0.0417904295027256
1715439371067198200,1.2991982421875,0.1897439956665039,-0.004592418670654297,0.020251531153917313
1715439371077204000,1.309203857421875,0.07456302642822266,-0.006269931793212891,0.0031158849596977234
1715439371087210000,1.3192099609375,-0.03423309326171875,-0.021593570709228516,0.03227567300200462
1715439371097216000,1.329216064453125,-0.06156635284423828,-0.021813392639160156,0.05593936890363693
1715439371107222000,1.339221923828125,-0.060341835021972656,-0.021758079528808594,0.027555212378501892
1715439371117228000,1.34922802734375,-0.030837059020996094,-0.04533672332763672,0.037765562534332275
1715439371127234000,1.359234130859375,0.026678085327148438,-0.06426858901977539,0.06231334060430527
1715439371137240000,1.369239990234375,0.05533790588378906,-0.012893199920654297,0.011053822934627533
1715439371147246000,1.37924609375,0.0415496826171875,0.041613101959228516,-0.011511623859405518
1715439371157252000,1.389252197265625,0.014318466186523438,0.01435089111328125,0.05114443600177765
1715439371167257900,1.3992578125,0.016295433044433594,-0.046324729919433594,0.09915352612733841
1715439371177263900,1.409263916015625,-0.05208587646484375,-0.045323848724365234,0.03378926217556
1715439371187270000,1.419269775390625,-0.14783382415771484,-0.029758453369140625,-0.011208437383174896
1715439371197276000,1.42927587890625,-0.17672443389892578,-0.01798248291015625,0.010856255888938904
1715439371207282000,1.439281982421875,-0.13030529022216797,-0.04317045211791992,0.07566405087709427
1715439371217288000,1.449287841796875,-0.00948333740234375,-0.053549766540527344,0.11720486730337143
1715439371227294000,1.4592939453125,0.10010337829589844,-0.03587675094604492,0.08372144401073456
1715439371237300000,1.469300048828125,0.12842369079589844,-0.01958942413330078,-0.01933871954679489
1715439371247306000,1.479305908203125,0.11911201477050781,-0.018599987030029297,-0.09749788045883179
1715439371257312000,1.48931201171875,0.03943061828613281,-0.0036764144897460938,-0.08518189191818237
1715439371267317800,1.49931787109375,-0.05796527862548828,-0.002762317657470703,-0.06308287382125854
1715439371277323800,1.50932373046875,-0.1684274673461914,0.008550167083740234,-0.09710483253002167
1715439371287329800,1.519329833984375,-0.2873830795288086,0.0118865966796875,-0.12987230718135834
1715439371297335800,1.529335693359375,-0.3021373748779297,-0.0012311935424804688,-0.1522892415523529
1715439371307341800,1.539341796875,-0.2377614974975586,0.006775856018066406,-0.1696367859840393
1715439371317347800,1.549347900390625,-0.20867347717285156,0.016901016235351562,-0.21106038987636566
1715439371327353900,1.559353759765625,-0.11519908905029297,0.009917736053466797,-0.17282135784626007
1715439371337360000,1.56935986328125,0.008884429931640625,-0.0049228668212890625,-0.0465664304792881
1715439371347366000,1.579365966796875,0.10226154327392578,0.004752635955810547,-0.036222249269485474
1715439371357372000,1.589371826171875,0.1991567611694336,0.07485437393188477,-0.007847819477319717
1715439371367377700,1.599377685546875,0.22937870025634766,0.04809093475341797,0.029018573462963104
1715439371377383700,1.6093837890625,0.20360088348388672,0.005843639373779297,0.0654790848493576
1715439371387389700,1.6193896484375,0.14148426055908203,0.023885726928710938,0.045398447662591934
1715439371397395700,1.629395751953125,0.057656288146972656,0.02605581283569336,-0.01577160507440567
1715439371407401700,1.639401611328125,-0.02899169921875,-0.005671501159667969,-0.03727760910987854
1715439371417407500,1.649407470703125,-0.05774402618408203,-0.03206825256347656,-0.12396219372749329
1715439371427413500,1.65941357421875,-0.07684898376464844,-0.03402280807495117,-0.10603109747171402
1715439371437419500,1.66941943359375,-0.05375862121582031,-0.011497020721435547,0.01088424026966095
1715439371447425300,1.67942529296875,0.05825996398925781,-0.012620925903320312,0.014098629355430603
1715439371457431300,1.689431396484375,0.1642017364501953,-0.01934051513671875,-0.015179339796304703
1715439371467437300,1.699437255859375,0.17486000061035156,-0.027124404907226562,-0.021642811596393585
1715439371477443000,1.709443115234375,0.15769004821777344,-0.02173900604248047,0.013342399150133133
1715439371487449000,1.719448974609375,0.13664817810058594,-0.003314495086669922,0.023576566949486732
1715439371497455000,1.729455078125,0.11169910430908203,-0.004847049713134766,-0.000053685158491134644
1715439371507461000,1.739461181640625,0.049849510192871094,-0.006987094879150391,-0.010450869798660278
1715439371517467000,1.749466796875,-0.006056785583496094,-0.000034809112548828125,-0.021739255636930466
1715439371527473000,1.759472900390625,-0.06097984313964844,0.006712436676025391,-0.023983702063560486
1715439371537479000,1.76947900390625,-0.07275867462158203,0.00420379638671875,-0.021490681916475296
1715439371547484700,1.779484619140625,-0.08439159393310547,-0.002880573272705078,-0.03747013956308365
1715439371557490700,1.78949072265625,-0.10068988800048828,-0.00015687942504882812,-0.03375531733036041
1715439371567496700,1.79949658203125,-0.15012836456298828,0.012753486633300781,-0.05808214098215103
1715439371577502500,1.80950244140625,-0.20875930786132812,0.017120361328125,-0.10123719274997711
1715439371587508500,1.819508544921875,-0.24377155303955078,0.008921623229980469,-0.11075963079929352
1715439371597514500,1.829514404296875,-0.2321624755859375,0.016887187957763672,-0.12519952654838562
1715439371607520300,1.839520263671875,-0.1745586395263672,0.02164173126220703,-0.11104290187358856
1715439371617526300,1.8495263671875,-0.0854024887084961,0.027132034301757812,-0.1109931468963623
1715439371627532300,1.8595322265625,-0.007049560546875,0.008809566497802734,-0.06808063387870789
1715439371637538300,1.869538330078125,0.032677650451660156,0.008994102478027344,-0.015821091830730438
1715439371647544000,1.8795439453125,0.010979652404785156,-0.010472774505615234,-0.04871444031596184
1715439371657550000,1.889550048828125,-0.05278205871582031,-0.020107746124267578,0.008736107498407364
1715439371667556000,1.89955615234375,-0.03106975555419922,-0.014824390411376953,0.0275886133313179
1715439371677561900,1.909561767578125,0.023049354553222656,-0.018684864044189453,-0.025025997310876846
1715439371687568000,1.91956787109375,0.06675910949707031,-0.017588138580322266,-0.044896602630615234
1715439371697574000,1.929573974609375,0.14731693267822266,-0.0021982192993164062,-0.003906071186065674
1715439371707580000,1.939579833984375,0.2409658432006836,-0.006440639495849609,-0.031183261424303055
1715439371717586000,1.9495859375,0.2585182189941406,-0.016768455505371094,-0.0595904104411602
1715439371727592000,1.959592041015625,0.22928428649902344,-0.013885021209716797,-0.01638597995042801
1715439371737598000,1.969597900390625,0.2152538299560547,-0.026267051696777344,0.012720704078674316
1715439371747604000,1.97960400390625,0.15509986877441406,-0.035100460052490234,0.0008042939007282257
1715439371757609700,1.989609619140625,0.08220481872558594,-0.03509998321533203,0.02392902970314026
1715439371767615700,1.99961572265625,0.034157752990722656,-0.03999185562133789,0.03387243300676346
1715439371777621800,2.009621826171875,0.019911766052246094,-0.044892311096191406,0.016713526099920273
1715439371787627800,2.019627685546875,-0.0036153793334960938,-0.03069448471069336,0.014413617551326752
1715439371797633800,2.0296337890625,0.02504444122314453,-0.02144336700439453,0.04535062983632088
1715439371807639800,2.039639892578125,0.04391288757324219,0.0015950202941894531,-0.00942247360944748
1715439371817645800,2.049645751953125,0.01092529296875,0.019085407257080078,-0.05961612984538078
1715439371827651800,2.05965185546875,-0.011992454528808594,-0.006275177001953125,-0.043780457228422165
1715439371837657900,2.069657958984375,-0.0015163421630859375,-0.01717996597290039,-0.023526687175035477
1715439371847663900,2.079663818359375,-0.00994873046875,0.00016450881958007812,-0.05557158961892128
1715439371857669600,2.089669677734375,-0.03236675262451172,0.01251220703125,-0.058789052069187164
1715439371867675600,2.099675537109375,-0.045093536376953125,-0.003414630889892578,-0.03347780928015709
1715439371877681700,2.109681640625,-0.0295562744140625,-0.018712520599365234,-0.03162768855690956
1715439371887687700,2.119687744140625,0.009068489074707031,-0.014556884765625,-0.03918410837650299
1715439371897693700,2.129693603515625,0.03763389587402344,0.022491455078125,-0.037799686193466187
1715439371907699700,2.13969970703125,0.013880729675292969,0.03076314926147461,-0.04152598977088928
1715439371917705700,2.149705810546875,-0.014330863952636719,0.006209373474121094,-0.03618578612804413
1715439371927711700,2.159711669921875,-0.004650115966796875,-0.045732975006103516,-0.007383715361356735
1715439371937717800,2.1697177734375,0.03782844543457031,-0.06855964660644531,-0.011601228266954422
1715439371947723800,2.179723876953125,0.046881675720214844,-0.05378866195678711,-0.052796944975852966
1715439371957729500,2.1897294921875,0.056026458740234375,-0.03500843048095703,-0.04049396514892578
1715439371967735600,2.199735595703125,0.04632759094238281,-0.021522045135498047,-0.008066227659583092
1715439371977741600,2.209741455078125,0.03679084777832031,-0.031804561614990234,-0.012881845235824585
1715439371987747600,2.21974755859375,0.041640281677246094,-0.013848304748535156,-0.07842618227005005
1715439371997753600,2.229753662109375,-0.005379676818847656,0.017934322357177734,-0.16277915239334106
1715439372007759600,2.239759521484375,-0.04254150390625,0.026280879974365234,-0.18179689347743988
1715439372017765600,2.249765625,-0.02778148651123047,0.011854171752929688,-0.1266472041606903
1715439372027771600,2.259771728515625,0.009979248046875,0.007630348205566406,-0.09233327209949493
1715439372037777700,2.269777587890625,0.047110557556152344,0.008185386657714844,-0.08250580728054047
1715439372047783400,2.279783447265625,0.09819316864013672,-0.02033710479736328,-0.029886320233345032
1715439372057789400,2.28978955078125,0.09712409973144531,-0.01633310317993164,-0.014771634712815285
1715439372067795500,2.29979541015625,0.06821632385253906,-0.0037055015563964844,-0.0037578782066702843
1715439372077801500,2.309801513671875,0.026012420654296875,0.012784481048583984,-0.02554003894329071
1715439372087807500,2.319807373046875,-0.0154876708984375,-0.008669376373291016,-0.02343219704926014
1715439372097813500,2.3298134765625,-0.04241657257080078,-0.019894123077392578,-0.016799520701169968
1715439372107819500,2.339819580078125,-0.04094219207763672,-0.039803504943847656,-0.0009018108248710632
1715439372117825500,2.349825439453125,-0.025565147399902344,-0.040183067321777344,-0.02297937497496605
1715439372127831600,2.35983154296875,-0.03889274597167969,-0.026066303253173828,-0.030332189053297043
1715439372137837600,2.369837646484375,-0.03336143493652344,-0.030655860900878906,0.009754480794072151
1715439372147843300,2.37984326171875,-0.028168678283691406,-0.06296586990356445,0.04951120913028717
1715439372157849300,2.389849365234375,0.0003337860107421875,-0.1038818359375,0.06109628826379776
1715439372167855400,2.39985546875,0.018945693969726562,-0.07348489761352539,0.06848077476024628
1715439372177861400,2.409861328125,0.056082725524902344,-0.029466629028320312,0.029134366661310196
1715439372187867400,2.419867431640625,0.07867431640625,0.01816415786743164,-0.06158173084259033
1715439372197873400,2.429873291015625,0.1011362075805664,0.022168636322021484,-0.07633088529109955
1715439372207879400,2.43987939453125,0.1047830581665039,0.02067089080810547,-0.05380887910723686
1715439372217885400,2.449885498046875,0.06157684326171875,0.01865386962890625,-0.0561627596616745
1715439372227891500,2.459891357421875,-0.013822555541992188,0.021287918090820312,-0.04512761905789375
1715439372237897500,2.4698974609375,-0.07880115509033203,0.005497932434082031,-0.05900004506111145
1715439372247903200,2.4799033203125,-0.11980152130126953,-0.00884866714477539,-0.03141120448708534
1715439372257909200,2.4899091796875,-0.0995016098022461,-0.026576519012451172,-0.00922974944114685
1715439372267915300,2.499915283203125,-0.04682350158691406,-0.04355812072753906,0.07440485060214996
1715439372277921300,2.50992138671875,0.005077362060546875,-0.027477741241455078,0.03916163370013237
1715439372287927300,2.51992724609375,0.056365013122558594,0.0020036697387695312,-0.037177782505750656
1715439372297933300,2.529933349609375,0.11220264434814453,0.006175994873046875,-0.04595237597823143
1715439372307939300,2.539939208984375,0.1491708755493164,0.013350486755371094,-0.03033563867211342
1715439372317945300,2.5499453125,0.09700679779052734,0.009260177612304688,-0.027982313185930252
1715439372327951400,2.559951416015625,0.003932952880859375,-0.005267620086669922,-0.020581070333719254
1715439372337957400,2.569957275390625,-0.11584091186523438,-0.019548892974853516,-0.03731798008084297
1715439372347963100,2.579963134765625,-0.20135974884033203,-0.013483047485351562,-0.05050395056605339
1715439372357969200,2.58996923828125,-0.22529315948486328,-0.024444580078125,-0.032035160809755325
1715439372367975200,2.59997509765625,-0.16502094268798828,-0.04291391372680664,0.004492603242397308
1715439372377981200,2.609981201171875,-0.06843185424804688,-0.041604042053222656,-0.001757841557264328
1715439372387987200,2.6199873046875,0.007762908935546875,-0.007445335388183594,-0.040764905512332916
1715439372397993200,2.6299931640625,0.035851478576660156,0.002147197723388672,-0.0789903849363327
1715439372407999200,2.639999267578125,0.021294593811035156,-0.007618427276611328,-0.06480169296264648
1715439372418005200,2.650005126953125,0.0023221969604492188,-0.026730060577392578,-0.03175192326307297
1715439372428011300,2.66001123046875,-0.006962776184082031,-0.021890640258789062,-0.008044451475143433
1715439372438017000,2.67001708984375,-0.04920005798339844,-0.02156972885131836,-0.05030733719468117
1715439372448023000,2.68002294921875,-0.11011219024658203,-0.006134510040283203,-0.06834891438484192
1715439372458029000,2.690029052734375,-0.08589744567871094,0.0008020401000976562,-0.010769490152597427
1715439372468035000,2.70003515625,0.008342742919921875,-0.010848045349121094,0.01737675443291664
1715439372478041000,2.710041015625,0.09654903411865234,-0.013339519500732422,0.006841715425252914
1715439372488047000,2.720047119140625,0.1272754669189453,0.0021381378173828125,-0.013577837496995926
1715439372498053000,2.73005322265625,0.14395809173583984,-0.0025649070739746094,-0.010345160961151123
1715439372508059100,2.74005908203125,0.1375141143798828,-0.022583961486816406,-0.011735029518604279
1715439372518065200,2.750065185546875,0.10347175598144531,-0.047976016998291016,-0.05104297026991844
1715439372528071200,2.7600712890625,0.027866363525390625,-0.045146942138671875,-0.05714833736419678
1715439372538077000,2.770076904296875,-0.07032012939453125,-0.018278121948242188,-0.058905504643917084
1715439372548083000,2.7800830078125,-0.1628561019897461,-0.018838882446289062,-0.060773447155952454
1715439372558089000,2.7900888671875,-0.20309734344482422,-0.02219533920288086,-0.07244759052991867
1715439372568095000,2.800094970703125,-0.2012338638305664,-0.019064903259277344,-0.06537213921546936
1715439372578101000,2.81010107421875,-0.15320396423339844,-0.014356613159179688,-0.020580297335982323
1715439372588107000,2.82010693359375,-0.0074367523193359375,0.00974273681640625,-0.00899122841656208
1715439372598113000,2.830113037109375,0.0796966552734375,0.05173349380493164,-0.03154361993074417
1715439372608119000,2.840119140625,0.08602428436279297,0.03525400161743164,-0.050297774374485016
1715439372618125000,2.850125,0.06929874420166016,0.01796245574951172,-0.08402807265520096
1715439372628131000,2.860131103515625,0.02524566650390625,-0.004927158355712891,-0.15080712735652924
1715439372638136800,2.87013671875,-0.012819290161132812,0.013947010040283203,-0.12252171337604523
1715439372648142800,2.880142822265625,-0.10189437866210938,-0.005429744720458984,-0.10361170768737793
1715439372658148900,2.89014892578125,-0.16197490692138672,-0.023116111755371094,-0.018797261640429497
1715439372668155000,2.90015478515625,-0.2598104476928711,0.017995834350585938,0.08480944484472275
1715439372678161000,2.910160888671875,-0.3248786926269531,0.042949676513671875,0.050738196820020676
1715439372688167000,2.9201669921875,-0.28253173828125,0.061702728271484375,0.06473295390605927
1715439372698173000,2.9301728515625,-0.21435260772705078,0.012695789337158203,0.1179814487695694
1715439372708179000,2.940178955078125,-0.13424396514892578,-0.047616004943847656,0.14339983463287354
1715439372718185000,2.95018505859375,-0.0041446685791015625,-0.07774829864501953,-0.02287689968943596
1715439372728190700,2.960190673828125,0.2280731201171875,0.1409144401550293,-0.04053042456507683
1715439372738196700,2.97019677734375,0.21752071380615234,0.04290342330932617,-0.33065420389175415
1715439372748202800,2.98020263671875,0.05237293243408203,0.06786489486694336,-0.40172237157821655
1715439372758208800,2.990208740234375,-0.06762027740478516,0.1159515380859375,-0.2783978581428528
1715439372768214800,3.00021484375,-0.09209156036376953,-0.000293731689453125,-0.33984214067459106
1715439372778220800,3.010220703125,0.019951820373535156,-0.010113716125488281,-0.3618590533733368
1715439372788226800,3.020226806640625,-0.02093219757080078,0.02340984344482422,-0.37491413950920105
1715439372798232800,3.03023291015625,-0.00514984130859375,0.0856928825378418,-0.396933913230896
1715439372808238800,3.04023876953125,0.0291748046875,0.034066200256347656,-0.3901062607765198
1715439372818244900,3.050244873046875,0.15730571746826172,-0.04057884216308594,-0.2905246317386627
1715439372828250600,3.060250732421875,0.2784700393676758,-0.03824615478515625,-0.2064533531665802
1715439372838256600,3.070256591796875,0.3281850814819336,0.15497779846191406,-0.23076242208480835
1715439372848262700,3.0802626953125,0.24675369262695312,0.021879196166992188,-0.36947575211524963
1715439372858268700,3.0902685546875,0.09237194061279297,-0.030988216400146484,-0.49521225690841675
1715439372868274700,3.100274658203125,-0.012041091918945312,0.020027637481689453,-0.4599199891090393
1715439372878280700,3.11028076171875,-0.06321048736572266,0.028424739837646484,-0.3408307731151581
1715439372888286700,3.12028662109375,-0.12817955017089844,-0.009311676025390625,-0.2989935278892517
1715439372898292700,3.130292724609375,-0.23999309539794922,-0.039969444274902344,-0.39393290877342224
1715439372908298800,3.140298828125,-0.34644317626953125,-0.015882492065429688,-0.4410868287086487
1715439372918304800,3.1503046875,-0.4770317077636719,0.05482292175292969,-0.4441593885421753
1715439372928310500,3.160310546875,-0.32548999786376953,0.03522300720214844,-0.5361694097518921
1715439372938316500,3.170316650390625,-0.1974639892578125,0.04842376708984375,-0.6513503193855286
1715439372948322600,3.180322509765625,-0.007616996765136719,0.07463788986206055,-0.7399066090583801
1715439372958328600,3.19032861328125,0.17302417755126953,0.12656831741333008,-0.9539908170700073
1715439372968334600,3.20033447265625,0.1426839828491211,0.16970396041870117,-1.2243165969848633
1715439372978340600,3.210340576171875,0.03665447235107422,0.06799077987670898,-1.2443726062774658
1715439372988346600,3.2203466796875,-0.12046241760253906,-0.062180519104003906,-1.0843356847763062
1715439372998352600,3.2303525390625,-0.14421939849853516,-0.15388846397399902,-1.0011190176010132
1715439373008358700,3.240358642578125,-0.21562767028808594,-0.44299840927124023,-0.9059704542160034
1715439373018364400,3.250364501953125,-0.19251537322998047,-0.4882056713104248,-0.8474136590957642
1715439373028370400,3.260370361328125,-0.0007066726684570312,-0.5535430908203125,-0.9231725335121155
1715439373038376400,3.27037646484375,0.23590373992919922,-0.712590217590332,-1.0416816473007202
1715439373048382500,3.280382568359375,0.33367443084716797,-0.7727746963500977,-0.8395847082138062
1715439373058388500,3.290388427734375,0.27527809143066406,-0.7011990547180176,-0.4437430500984192
1715439373068394500,3.30039453125,0.4077730178833008,-0.5688261985778809,-0.20149505138397217
1715439373078400500,3.310400390625,0.4166746139526367,-0.6005609035491943,-0.21100163459777832
1715439373088406500,3.320406494140625,0.37362194061279297,-0.7039051055908203,0.06082642078399658
1715439373098412500,3.33041259765625,0.3457517623901367,-0.8403623104095459,0.3278513252735138
1715439373108418600,3.34041845703125,0.3282918930053711,-0.8524460792541504,0.5075515508651733
1715439373118424300,3.35042431640625,0.33560943603515625,-0.7602612972259521,0.6532665491104126
1715439373128430300,3.360430419921875,0.5733566284179688,-0.6468296051025391,0.5477255582809448
1715439373138436400,3.370436279296875,0.7171001434326172,-0.6820099353790283,0.4450688362121582
1715439373148442400,3.3804423828125,0.7329950332641602,-0.6833775043487549,0.30887240171432495
1715439373158448400,3.390448486328125,0.6687793731689453,-0.6504232883453369,0.04857546091079712
1715439373168454400,3.400454345703125,0.42836952209472656,-0.9252216815948486,-0.7112422585487366
1715439373178460400,3.41046044921875,0.48606014251708984,-1.0650420188903809,-1.173907995223999
1715439373188466400,3.420466552734375,0.40299510955810547,-0.7867000102996826,-0.6671543121337891
1715439373198472400,3.430472412109375,0.3262958526611328,-1.0385112762451172,-0.4223688244819641
1715439373208478500,3.440478515625,0.2694234848022461,-1.3247209787368774,-0.3531918227672577
1715439373218484200,3.450484130859375,0.3800640106201172,-1.33832585811615,-0.22346839308738708
1715439373228490200,3.460490234375,0.5626678466796875,-1.2379305362701416,-0.2578587234020233
1715439373238496300,3.470496337890625,0.693145751953125,-1.1057839393615723,-0.5414315462112427
1715439373248502300,3.480502197265625,0.8581886291503906,-1.1535437107086182,-0.5539089441299438
1715439373258508300,3.49050830078125,1.0157155990600586,-1.0196716785430908,-0.710686445236206
1715439373268514300,3.500514404296875,0.5691423416137695,-0.8604598045349121,-1.0626040697097778
1715439373278520300,3.510520263671875,-0.28525447845458984,-0.7793328762054443,-0.5366412401199341
1715439373288526300,3.5205263671875,-0.8082675933837891,-0.47562122344970703,1.4686450958251953
1715439373298532400,3.530532470703125,-0.6736927032470703,0.2742917537689209,4.486993789672852
1715439373308538000,3.5405380859375,-0.06618022918701172,0.9103572368621826,6.303471565246582
1715439373318544100,3.550544189453125,0.04016876220703125,0.7613563537597656,5.6440935134887695
1715439373328550100,3.560550048828125,0.26256465911865234,0.08356595039367676,1.910473346710205
1715439373338556200,3.57055615234375,-0.13233661651611328,0.0008616447448730469,0.451491117477417
1715439373348562200,3.580562255859375,-0.4873685836791992,0.24607396125793457,0.4593242406845093
1715439373358568200,3.590568115234375,-0.5991973876953125,0.3469970226287842,0.05642414093017578
1715439373368574200,3.60057421875,-0.8813648223876953,-0.09445619583129883,1.824594497680664
1715439373378580200,3.610580322265625,-0.40435028076171875,0.19188380241394043,1.7380110025405884
1715439373388586200,3.620586181640625,-0.0773935317993164,-0.20151519775390625,0.7311373949050903
1715439373398592300,3.63059228515625,0.22892475128173828,-0.3247654438018799,0.21324801445007324
1715439373408598000,3.640597900390625,0.3197450637817383,-0.5613973140716553,-0.21846222877502441
1715439373418604000,3.65060400390625,0.048003196716308594,-0.7416239976882935,-0.5475584268569946
1715439373428610000,3.660610107421875,-0.2679252624511719,-0.6417664289474487,-1.5579456090927124
1715439373438616000,3.670615966796875,-0.8863201141357422,-0.7648794651031494,0.20339298248291016
1715439373448622000,3.6806220703125,-1.5595550537109375,0.1076514720916748,0.6469522714614868
1715439373458628000,3.690628173828125,-1.5879011154174805,0.059360504150390625,-0.3783271312713623
1715439373468634000,3.700634033203125,-1.4628524780273438,0.07878279685974121,-2.230508327484131
1715439373478640000,3.71064013671875,-1.1191225051879883,-0.3099842071533203,-1.665516972541809
1715439373488646100,3.720646240234375,-0.8611831665039062,-0.6103088855743408,-0.8471694588661194
1715439373498652200,3.730652099609375,-0.814204216003418,-0.6970435976982117,-1.0225224494934082
1715439373508658000,3.740657958984375,-0.5407447814941406,-0.998575747013092,-0.9444101452827454
1715439373518664000,3.750663818359375,0.45003795623779297,-1.1655806303024292,-0.3194543123245239
1715439373528670000,3.760669921875,1.2508163452148438,-1.0183762311935425,-0.05134749412536621
1715439373538676000,3.770676025390625,1.963078498840332,-0.8087661862373352,0.20601844787597656
1715439373548682000,3.780681884765625,2.291459083557129,-0.6514747142791748,0.5236996412277222
1715439373558688000,3.79068798828125,2.36068058013916,-0.6665826439857483,0.7465324401855469
1715439373568694000,3.800694091796875,2.4469213485717773,-0.7595868706703186,1.0603278875350952
1715439373578700000,3.810699951171875,1.989211082458496,-1.4430902004241943,1.7066829204559326
1715439373588706000,3.8207060546875,2.110163688659668,-1.4090547561645508,2.2139363288879395
1715439373598711800,3.8307119140625,1.357285499572754,-0.9148243069648743,1.706908941268921
1715439373608717800,3.8407177734375,1.004176139831543,-0.37352776527404785,0.5787608623504639
1715439373618723800,3.850723876953125,0.9833974838256836,0.041833579540252686,-0.24060797691345215
1715439373628729900,3.860729736328125,0.7993259429931641,0.571850597858429,-0.7177362442016602
1715439373638736000,3.87073583984375,0.45218467712402344,0.5687513947486877,-1.1957341432571411
1715439373648742000,3.880741943359375,0.3368701934814453,0.40205132961273193,-0.8973475694656372
1715439373658748000,3.890747802734375,0.3839693069458008,-0.3474503755569458,-0.5512160062789917
1715439373668754000,3.90075390625,0.1425952911376953,-0.6631067991256714,0.09780430793762207
1715439373678760000,3.910760009765625,-0.27423572540283203,-0.8462928533554077,1.346369743347168
1715439373688766000,3.920765869140625,-0.7141809463500977,-0.8366736769676208,1.4669561386108398
1715439373698771700,3.930771728515625,-0.7831697463989258,-0.7311776876449585,1.6290569305419922
1715439373708777700,3.94077783203125,-0.6768617630004883,-0.5782690644264221,1.742236852645874
1715439373718783700,3.95078369140625,-0.6315727233886719,-0.2735653519630432,2.1857924461364746
1715439373728789800,3.960789794921875,-0.8791255950927734,0.2454547882080078,1.2631516456604004
1715439373738795800,3.970795654296875,-1.10693359375,0.3544275760650635,-0.13702428340911865
1715439373748801800,3.9808017578125,-1.1849365234375,0.7251753807067871,-0.6478296518325806
1715439373758807800,3.990807861328125,-1.1139354705810547,0.789239764213562,-0.5095553398132324
1715439373768813800,4.000813720703125,-0.7336578369140625,-0.03441798686981201,0.7587795257568359
1715439373778819800,4.01081982421875,-0.5910797119140625,-0.3357235789299011,1.0015907287597656
1715439373788825900,4.020825927734375,-0.5466604232788086,-0.1994781494140625,0.3259241580963135
1715439373798831600,4.03083154296875,-0.3838338851928711,-0.10960924625396729,-0.006021022796630859
1715439373808837600,4.040837646484375,-0.1834125518798828,-0.11910676956176758,0.12642765045166016
1715439373818843600,4.05084375,-0.1552448272705078,-0.05670583248138428,0.31009340286254883
1715439373828849700,4.060849609375,-0.26053714752197266,-0.02199864387512207,0.28565120697021484
1715439373838855700,4.070855712890625,-0.26050281524658203,-0.05127847194671631,0.1066286563873291
1715439373848861700,4.08086181640625,-0.1414318084716797,-0.09142589569091797,0.10430693626403809
1715439373858867700,4.09086767578125,-0.0040950775146484375,-0.12391448020935059,0.1265425682067871
1715439373868873700,4.100873779296875,0.11309814453125,-0.15382039546966553,0.0786447525024414
1715439373878879700,4.110879638671875,0.24890613555908203,-0.18711721897125244,-0.002454519271850586
1715439373888885800,4.1208857421875,0.3800163269042969,-0.21634602546691895,-0.0178225040435791
1715439373898891500,4.1308916015625,0.4591941833496094,-0.18648219108581543,0.060094356536865234
1715439373908897500,4.1408974609375,0.37209606170654297,-0.0885457992553711,0.1780257225036621
1715439373918903600,4.150903564453125,0.2004995346069336,-0.0074166059494018555,0.27702760696411133
1715439373928909600,4.16090966796875,0.06871891021728516,0.021062135696411133,0.3847842216491699
1715439373938915600,4.17091552734375,0.009309768676757812,0.012693285942077637,0.2938578128814697
1715439373948921600,4.180921630859375,0.08837318420410156,-0.046266794204711914,0.06441402435302734
1715439373958927600,4.190927734375,0.21927356719970703,-0.10402488708496094,-0.06723785400390625
1715439373968933600,4.20093359375,0.25870609283447266,-0.15242505073547363,-0.08672332763671875
1715439373978939600,4.210939697265625,0.16407108306884766,-0.1923835277557373,-0.10915207862854004
1715439373988945400,4.2209453125,0.041046142578125,-0.2089632749557495,-0.1456003189086914
1715439373998951400,4.230951416015625,-0.033390045166015625,-0.23543024063110352,-0.19827139377593994
1715439374008957400,4.24095751953125,-0.02594280242919922,-0.22865033149719238,-0.21932637691497803
1715439374018963500,4.25096337890625,0.010405540466308594,-0.19777917861938477,-0.1603107452392578
1715439374028969500,4.260969482421875,-0.039214134216308594,-0.2049417495727539,-0.15447044372558594
1715439374038975500,4.2709755859375,-0.1128835678100586,-0.24943339824676514,-0.14781641960144043
1715439374048981500,4.2809814453125,-0.11071205139160156,-0.2297985553741455,-0.1389617919921875
1715439374058987500,4.290987548828125,-0.028017044067382812,-0.1274493932723999,-0.0230560302734375
1715439374068993500,4.30099365234375,0.03507041931152344,-0.08253765106201172,0.07943940162658691
1715439374078999600,4.31099951171875,0.0265960693359375,-0.03844892978668213,0.14766812324523926
1715439374089005300,4.32100537109375,0.09490203857421875,-0.004473209381103516,0.18596482276916504
1715439374099011300,4.33101123046875,0.20639896392822266,-0.015100836753845215,0.22350406646728516
1715439374109017300,4.341017333984375,0.2077350616455078,-0.06144893169403076,0.21457433700561523
1715439374119023400,4.3510234375,0.11322021484375,-0.12443256378173828,0.0841214656829834
1715439374129029400,4.361029296875,-0.07710742950439453,-0.21656298637390137,-0.0005254745483398438
1715439374139035600,4.37103564453125,-0.17211341857910156,-0.29342740774154663,0.008204221725463867
1715439374149041700,4.381041748046875,-0.2248516082763672,-0.32588112354278564,0.02494978904724121
1715439374159047700,4.391047607421875,-0.23513412475585938,-0.3044103980064392,0.12009716033935547
1715439374169053700,4.4010537109375,-0.26929664611816406,-0.23411965370178223,0.2718362808227539
1715439374179059700,4.411059814453125,-0.19814014434814453,-0.22551047801971436,0.22643661499023438
1715439374189065700,4.421065673828125,-0.1651172637939453,-0.14405834674835205,0.16990041732788086
1715439374199071700,4.43107177734375,0.07635116577148438,-0.14116287231445312,0.2501969337463379
1715439374209077800,4.441077880859375,0.2807340621948242,-0.09261226654052734,0.1796410083770752
1715439374219083800,4.451083740234375,0.3923921585083008,-0.11270225048065186,0.1436452865600586
1715439374229089800,4.46108984375,0.41773033142089844,-0.18225479125976562,0.1743922233581543
1715439374239096000,4.471095947265625,0.4242687225341797,-0.25398820638656616,0.06796097755432129
1715439374249102000,4.48110205078125,0.26679039001464844,-0.2007465362548828,0.017888545989990234
1715439374259108000,4.491108154296875,0.01826763153076172,-0.18202590942382812,0.09407210350036621
1715439374269114000,4.501114013671875,-0.08034133911132812,-0.26185983419418335,0.25893497467041016
1715439374279120100,4.5111201171875,-0.06909942626953125,-0.2645806670188904,0.176344633102417
1715439374289126100,4.521126220703125,-0.010922431945800781,-0.27187973260879517,0.08552789688110352
1715439374299132200,4.531132080078125,0.017902374267578125,-0.30259644985198975,0.05798482894897461
1715439374309138200,4.54113818359375,-0.015349388122558594,-0.27143949270248413,0.02771282196044922
1715439374319144200,4.551144287109375,-0.04379844665527344,-0.18845927715301514,0.04194378852844238
1715439374329150200,4.561150146484375,-0.07202625274658203,-0.16757047176361084,0.03790283203125
1715439374339156500,4.571156494140625,-0.0860443115234375,-0.14144623279571533,0.05863356590270996
1715439374349162500,4.58116259765625,-0.0953817367553711,-0.07292795181274414,0.061058759689331055
1715439374359168500,4.59116845703125,-0.16125965118408203,-0.084769606590271,-0.011504411697387695
1715439374369174500,4.601174560546875,-0.15095233917236328,-0.08993661403656006,-0.016826629638671875
1715439374379180500,4.6111806640625,-0.09390544891357422,-0.04190051555633545,0.006230354309082031
1715439374389186600,4.6211865234375,-0.03766441345214844,-0.03130972385406494,-0.00521397590637207
1715439374399192600,4.631192626953125,0.007959365844726562,-0.09618234634399414,-0.062429189682006836
1715439374409198600,4.641198486328125,-0.027396202087402344,-0.0942455530166626,-0.07543015480041504
1715439374419204600,4.65120458984375,-0.024458885192871094,-0.08738136291503906,-0.050786495208740234
1715439374429210600,4.661210693359375,-0.026458740234375,-0.10825836658477783,0.030421733856201172
1715439374439216600,4.671216552734375,-0.10436534881591797,-0.1274116039276123,0.0603795051574707
1715439374449222700,4.68122265625,-0.13010311126708984,-0.10660457611083984,-0.06254768371582031
1715439374459228700,4.691228759765625,-0.2647819519042969,-0.06972575187683105,-0.6930891275405884
1715439374469234400,4.701234375,-0.1882171630859375,-0.19781482219696045,-0.3139650821685791
1715439374479240400,4.711240478515625,0.1143789291381836,-0.04236710071563721,0.7651169300079346
1715439374489246500,4.72124658203125,-0.018181800842285156,0.03984665870666504,0.15754365921020508
1715439374499252500,4.73125244140625,-0.06277942657470703,-0.12726116180419922,-0.5771664381027222
1715439374509258500,4.741258544921875,0.3876056671142578,-0.16602444648742676,0.22298836708068848
1715439374519264500,4.751264404296875,0.45310115814208984,-0.08146417140960693,0.0597994327545166
1715439374529270500,4.7612705078125,0.32405757904052734,-0.07601118087768555,-0.12087929248809814
1715439374539276500,4.771276611328125,0.22078514099121094,-0.14209961891174316,-0.07693517208099365
1715439374549282600,4.781282470703125,0.12381935119628906,-0.11449670791625977,0.3917691707611084
1715439374559288300,4.791288330078125,-0.17034339904785156,-0.05927753448486328,-0.06955420970916748
1715439374569294300,4.80129443359375,-0.47843074798583984,-0.04971611499786377,-0.5554991960525513
1715439374579300400,4.81130029296875,-0.228668212890625,-0.23999178409576416,0.5274654626846313
1715439374589306400,4.821306396484375,-0.042209625244140625,-0.19673287868499756,0.4861794710159302
1715439374599312400,4.8313125,0.32422924041748047,-0.12181735038757324,0.6301521062850952
1715439374609318400,4.841318359375,0.42369937896728516,-0.15981990098953247,0.03681600093841553
1715439374619324400,4.851324462890625,0.32426929473876953,-0.24266421794891357,0.017779946327209473
1715439374629330400,4.861330322265625,-0.08675289154052734,-0.02734375,-0.7874788045883179
1715439374639336400,4.87133642578125,-0.0859231948852539,-0.2196519374847412,0.14130353927612305
1715439374649342500,4.881342529296875,0.31285762786865234,-0.25140732526779175,0.5822806358337402
1715439374659348200,4.89134814453125,0.14336109161376953,-0.2190394401550293,0.15363669395446777
1715439374669354200,4.901354248046875,0.04967308044433594,-0.14329499006271362,-0.2559998035430908
1715439374679360300,4.9113603515625,-0.06099128723144531,-0.15826457738876343,0.027068257331848145
1715439374689366300,4.9213662109375,-0.15551185607910156,0.006143689155578613,-0.4793739318847656
1715439374699372300,4.931372314453125,0.4067363739013672,-0.12662988901138306,0.749670147895813
1715439374709378300,4.94137841796875,0.4583301544189453,-0.013953804969787598,0.8181486129760742
1715439374719384300,4.95138427734375,0.14940452575683594,0.17896008491516113,-0.27150917053222656
1715439374729390300,4.961390380859375,0.02862834930419922,-0.10382282733917236,-0.44964998960494995
1715439374739396400,4.971396240234375,0.26495933532714844,-0.20411139726638794,0.37565338611602783
1715439374749402400,4.98140234375,-0.032947540283203125,-0.052387118339538574,-0.08867931365966797
1715439374759408000,4.991408203125,0.018001556396484375,0.14073550701141357,-0.048332929611206055
1715439374769414100,5.0014140625,0.07735919952392578,-0.03118717670440674,0.13830327987670898
1715439374779420200,5.011420166015625,0.055362701416015625,-0.08231544494628906,-0.16982507705688477
1715439374789426200,5.02142626953125,0.04195404052734375,0.024585366249084473,-0.4218065142631531
1715439374799432200,5.03143212890625,-0.014758110046386719,0.0001850128173828125,0.3466625213623047
1715439374809438200,5.041438232421875,0.18480300903320312,-0.19918346405029297,0.6670534610748291
1715439374819444200,5.0514443359375,-0.05510997772216797,0.10887885093688965,0.049185872077941895
1715439374829450200,5.0614501953125,-0.12090015411376953,-0.07659506797790527,-0.40471673011779785
1715439374839456300,5.071456298828125,-0.11401176452636719,-0.11381518840789795,-0.07212275266647339
1715439374849462300,5.081462158203125,-0.29515743255615234,-0.023122191429138184,-0.02212238311767578
1715439374859468000,5.091468017578125,-0.28047943115234375,0.016335725784301758,0.1117699146270752
1715439374869474000,5.10147412109375,-0.29010009765625,-0.01836574077606201,0.1236886978149414
1715439374879480000,5.11147998046875,-0.33280277252197266,-0.0318676233291626,-0.028819143772125244
1715439374889486000,5.121486083984375,-0.2431783676147461,-0.02915215492248535,-0.10821795463562012
1715439374899492000,5.1314921875,-0.09412479400634766,-0.06769049167633057,-0.10009539127349854
1715439374909498000,5.141498046875,0.04262828826904297,-0.039216041564941406,-0.08862274885177612
1715439374919504100,5.151504150390625,0.12492084503173828,-0.006247401237487793,-0.08766692876815796
1715439374929510100,5.16151025390625,0.04499340057373047,0.2002696990966797,-0.5586140155792236
1715439374939516200,5.17151611328125,-0.012116432189941406,-0.16086363792419434,0.38774174451828003
1715439374949522000,5.18152197265625,0.23968887329101562,-0.03024280071258545,0.6592485904693604
1715439374959528000,5.19152783203125,-0.2839546203613281,-0.003560185432434082,-0.3511964678764343
1715439374969534000,5.201533935546875,0.08190250396728516,-0.06422626972198486,-0.09860801696777344
1715439374979540000,5.2115400390625,0.23949337005615234,-0.1686629056930542,0.12672042846679688
1715439374989546000,5.2215458984375,0.12507152557373047,-0.11145532131195068,-0.6228790879249573
1715439374999552000,5.231552001953125,0.24636554718017578,-0.32375335693359375,0.3034053444862366
1715439375009558000,5.24155810546875,0.4896659851074219,-0.0014488697052001953,0.7808644771575928
1715439375019564000,5.25156396484375,-0.0801544189453125,-0.07407641410827637,-0.22753986716270447
1715439375029570000,5.261570068359375,-0.037550926208496094,-0.2608376741409302,-0.25078466534614563
1715439375039576000,5.271576171875,0.18846607208251953,-0.17296206951141357,-0.022667288780212402
1715439375049581800,5.281581787109375,-0.055245399475097656,-0.28982239961624146,-0.387478232383728
1715439375059587800,5.291587890625,-0.15833377838134766,-0.09761607646942139,0.06684070825576782
1715439375069593900,5.30159375,-0.15626811981201172,0.08767640590667725,0.32633841037750244
1715439375079599900,5.311599853515625,-0.26331424713134766,-0.1416996717453003,-0.24837908148765564
1715439375089606000,5.32160595703125,-0.1477832794189453,-0.1276487112045288,0.03057277202606201
1715439375099612000,5.33161181640625,0.008794784545898438,-0.10945510864257812,0.0034168362617492676
1715439375109618000,5.341617919921875,0.050670623779296875,-0.08414852619171143,-0.14923062920570374
1715439375119624000,5.3516240234375,0.3139057159423828,-0.03906893730163574,0.10844644904136658
1715439375129630000,5.3616298828125,0.11199378967285156,-0.1162940263748169,-0.07984575629234314
1715439375139636000,5.371635986328125,-0.12880611419677734,-0.11264503002166748,-0.120308518409729
1715439375149641700,5.381641845703125,-0.2055816650390625,-0.0752096176147461,-0.10417771339416504
1715439375159647700,5.391647705078125,-0.1635599136352539,-0.02288198471069336,-0.06440812349319458
1715439375169653800,5.40165380859375,-0.2399768829345703,-0.04148972034454346,-0.08746793866157532
1715439375179659800,5.41165966796875,-0.3293132781982422,-0.030042409896850586,-0.056142985820770264
1715439375189665800,5.421665771484375,-0.28528499603271484,0.010500669479370117,0.037297070026397705
1715439375199671800,5.431671875,-0.29851818084716797,-0.009731888771057129,0.061172306537628174
1715439375209677800,5.441677734375,-0.3258800506591797,-0.022980213165283203,-0.0003768801689147949
1715439375219683800,5.451683837890625,-0.1506061553955078,-0.0011867284774780273,0.0484885573387146
1715439375229689900,5.46168994140625,0.04047203063964844,-0.01689743995666504,0.05045199394226074
1715439375239695600,5.471695556640625,0.14835643768310547,-0.04202771186828613,-0.0038942694664001465
1715439375249701600,5.48170166015625,0.2405691146850586,-0.025825858116149902,0.017254531383514404
1715439375259707600,5.491707763671875,0.19964885711669922,-0.025734782218933105,0.10394096374511719
1715439375269713700,5.501713623046875,0.09366607666015625,-0.050333380699157715,0.06661921739578247
1715439375279719700,5.5117197265625,0.02714824676513672,-0.08405160903930664,0.025250256061553955
1715439375289725700,5.5217255859375,-0.010067939758300781,-0.10750210285186768,-0.00544661283493042
1715439375299731700,5.531731689453125,-0.07505226135253906,-0.10171043872833252,-0.029859602451324463
1715439375309737700,5.54173779296875,-0.08739948272705078,-0.11362528800964355,-0.057230353355407715
1715439375319743700,5.55174365234375,0.02750396728515625,-0.0917438268661499,-0.11222946643829346
1715439375329749800,5.561749755859375,0.08877849578857422,-0.033016204833984375,-0.15238088369369507
1715439375339755500,5.571755615234375,0.1490316390991211,-0.03245341777801514,-0.11985844373703003
1715439375349761500,5.581761474609375,0.18477821350097656,-0.051833391189575195,-0.12395423650741577
1715439375359767600,5.591767578125,0.11166858673095703,-0.06705689430236816,-0.1645072102546692
1715439375369773600,5.601773681640625,0.02554035186767578,-0.08679437637329102,-0.10374659299850464
1715439375379779600,5.611779541015625,-0.04527759552001953,-0.07737314701080322,0.057401180267333984
1715439375389785600,5.62178564453125,-0.1293497085571289,-0.0856781005859375,0.0766679048538208
1715439375399791600,5.63179150390625,-0.08992481231689453,-0.10142374038696289,0.07329744100570679
1715439375409797600,5.641797607421875,0.05236625671386719,-0.07877087593078613,0.18778067827224731
1715439375419803600,5.6518037109375,0.11242485046386719,-0.07631230354309082,0.17713576555252075
1715439375429809700,5.6618095703125,0.1622476577758789,-0.051348090171813965,0.1423540711402893
1715439375439815400,5.6718154296875,0.06545162200927734,-0.07473111152648926,0.013012290000915527
1715439375449821400,5.681821533203125,-0.053375244140625,-0.10647177696228027,-0.08572179079055786
1715439375459827500,5.691827392578125,-0.09037971496582031,-0.1364823579788208,-0.0926746129989624
1715439375469833500,5.70183349609375,-0.1362619400024414,-0.12283825874328613,-0.06687295436859131
1715439375479839500,5.711839599609375,-0.18617534637451172,-0.11766684055328369,-0.04240834712982178
1715439375489845500,5.721845458984375,-0.17425251007080078,-0.13418149948120117,0.004590272903442383
1715439375499851500,5.7318515625,0.034989356994628906,-0.055626511573791504,0.18977850675582886
1715439375509857500,5.741857421875,0.1136331558227539,-0.007691025733947754,0.03455662727355957
1715439375519863600,5.751863525390625,-0.0022802352905273438,-0.026018261909484863,-0.026555955410003662
1715439375529869300,5.761869384765625,-0.07916259765625,0.014931559562683105,0.1668573021888733
1715439375539875300,5.771875244140625,-0.08044910430908203,0.1285536289215088,0.48531967401504517
1715439375549881300,5.78188134765625,-0.14851856231689453,-0.053366780281066895,0.04900568723678589
1715439375559887400,5.791887451171875,-0.22481918334960938,-0.06646454334259033,-0.21168702840805054
1715439375569893400,5.801893310546875,-0.2146434783935547,-0.21406632661819458,-0.2752573490142822
1715439375579899400,5.8118994140625,0.13083934783935547,-0.014001965522766113,-0.26559633016586304
1715439375589905400,5.821905517578125,0.14176464080810547,-0.014247775077819824,0.20912092924118042
1715439375599911400,5.831911376953125,0.020895004272460938,0.006868600845336914,0.2763083577156067
1715439375609917400,5.84191748046875,-0.07460212707519531,-0.004570126533508301,0.17463845014572144
1715439375619923500,5.85192333984375,0.11861705780029297,0.012742400169372559,0.2077312469482422
1715439375629929500,5.861929443359375,0.23372840881347656,0.04102635383605957,0.012223303318023682
1715439375639935500,5.871935546875,-0.20442581176757812,-0.08903980255126953,-0.21433505415916443
1715439375649941500,5.88194140625,0.10350990295410156,-0.11587387323379517,-0.07524809241294861
1715439375659947500,5.891947509765625,0.4584522247314453,0.03865373134613037,-0.03774881362915039
1715439375669953500,5.90195361328125,0.4080190658569336,0.025273680686950684,-0.36196330189704895
1715439375679959800,5.911959716796875,0.3398866653442383,-0.08873391151428223,-0.4089832603931427
1715439375689965800,5.9219658203125,0.004345893859863281,-0.17638540267944336,-0.6801351308822632
1715439375699971800,5.931971923828125,0.4658699035644531,0.02689683437347412,-0.16336998343467712
1715439375709977900,5.941977783203125,0.16237831115722656,-0.05564737319946289,-0.24861182272434235
1715439375719983900,5.95198388671875,-0.13096237182617188,-0.17961907386779785,-0.44250625371932983
1715439375729990000,5.961989990234375,-0.3203144073486328,-0.11198145151138306,-0.17373386025428772
1715439375739996000,5.971995849609375,-0.3089475631713867,-0.06609702110290527,0.0697672963142395
1715439375750002000,5.982001953125,-0.24618148803710938,-0.11728507280349731,0.01644444465637207
1715439375760008000,5.992008056640625,-0.13274669647216797,-0.19890308380126953,-0.11723104119300842
1715439375770014000,6.002013916015625,0.0962076187133789,-0.09770077466964722,0.1478392481803894
1715439375780020200,6.012020263671875,0.3506450653076172,0.024774909019470215,0.21832329034805298
1715439375790026200,6.022026123046875,0.16798782348632812,-0.04911231994628906,0.11637622117996216
1715439375800032300,6.0320322265625,0.16292476654052734,-0.0899972915649414,0.12282514572143555
1715439375810038300,6.042038330078125,0.16756725311279297,-0.008571386337280273,0.2042589783668518
1715439375820044300,6.052044189453125,0.007587432861328125,0.005129098892211914,0.09936892986297607
1715439375830050300,6.06205029296875,-0.3149595260620117,-0.16580694913864136,0.025656402111053467
1715439375840056300,6.072056396484375,0.31470584869384766,-0.09050166606903076,0.6199848651885986
1715439375850062300,6.082062255859375,-0.06334304809570312,-0.02538752555847168,0.2065274715423584
1715439375860068400,6.092068359375,-0.20467567443847656,-0.12408691644668579,0.1460973024368286
1715439375870074400,6.102074462890625,-0.19799518585205078,-0.10156393051147461,0.14080089330673218
1715439375880080600,6.11208056640625,-0.14954471588134766,-0.07733523845672607,0.08281517028808594
1715439375890086700,6.122086669921875,-0.12120628356933594,-0.028515219688415527,0.03432565927505493
1715439375900092700,6.1320927734375,-0.32474422454833984,-0.05299258232116699,-0.2259371280670166
1715439375910098700,6.1420986328125,0.0020961761474609375,-0.04278206825256348,0.08565998077392578
1715439375920104700,6.152104736328125,-0.12374687194824219,0.051123976707458496,-0.0829816460609436
1715439375930110700,6.16211083984375,-0.02667522430419922,-0.029666900634765625,-0.09451574087142944
1715439375940116700,6.17211669921875,0.07822704315185547,0.0029294490814208984,-0.029642224311828613
1715439375950122800,6.182122802734375,0.06844806671142578,0.029185891151428223,0.02061617374420166
1715439375960128800,6.192128662109375,0.13879108428955078,0.0019298791885375977,0.11933469772338867
1715439375970134500,6.202134521484375,0.0899820327758789,0.002425074577331543,0.09268820285797119
1715439375980140500,6.212140625,0.02750873565673828,-0.02083122730255127,0.06043553352355957
1715439375990146600,6.222146484375,-0.05298614501953125,-0.06711757183074951,0.007094383239746094
1715439376000152600,6.232152587890625,-0.16998004913330078,-0.09294730424880981,-0.13414007425308228
1715439376010158600,6.24215869140625,-0.18630313873291016,-0.14030355215072632,-0.3014296293258667
1715439376020164600,6.25216455078125,-0.10343647003173828,-0.12438124418258667,-0.3733404278755188
1715439376030170600,6.262170654296875,-0.08288764953613281,-0.1173514723777771,-0.3672364354133606
1715439376040176600,6.2721767578125,0.008168220520019531,-0.14703059196472168,-0.288893461227417
1715439376050182700,6.2821826171875,0.1168661117553711,-0.06819230318069458,-0.12023788690567017
1715439376060188700,6.292188720703125,0.18637943267822266,-0.0477980375289917,-0.017495036125183105
1715439376070194400,6.3021943359375,0.33960628509521484,-0.02017664909362793,0.25860595703125
1715439376080200400,6.312200439453125,0.1562814712524414,0.005277872085571289,0.08184945583343506
1715439376090206500,6.32220654296875,0.26755428314208984,-0.07771939039230347,0.0336834192276001
1715439376100212500,6.33221240234375,0.1594982147216797,-0.19400650262832642,-0.25371015071868896
1715439376110218500,6.342218505859375,0.6381950378417969,-0.0321727991104126,0.378376841545105
1715439376120224500,6.352224609375,0.00833892822265625,0.042279720306396484,0.00030815601348876953
1715439376130230500,6.36223046875,-0.2019023895263672,-0.2353055477142334,-0.10056865215301514
1715439376140236500,6.372236572265625,-0.10332298278808594,-0.15352356433868408,-0.08199632167816162
1715439376150242600,6.38224267578125,-0.0819549560546875,-0.189677894115448,-0.16168832778930664
1715439376160248300,6.392248291015625,-0.0891103744506836,-0.2385876178741455,-0.21784359216690063
1715439376170254300,6.40225439453125,-0.24274063110351562,-0.3615175485610962,-0.48431283235549927
1715439376180260400,6.41226025390625,0.4360647201538086,-0.11920356750488281,0.3165905475616455
1715439376190266400,6.422266357421875,0.25286006927490234,0.03845417499542236,0.3382755517959595
1715439376200272400,6.4322724609375,0.12010383605957031,-0.028969764709472656,0.3538717031478882
1715439376210278400,6.4422783203125,-0.10545730590820312,-0.1251465082168579,-0.11608290672302246
1715439376220284400,6.452284423828125,0.47832393646240234,-0.12793028354644775,0.2118363380432129
1715439376230290400,6.46229052734375,0.3851051330566406,-0.1876179575920105,0.10493934154510498
1715439376240296400,6.47229638671875,0.26073360443115234,-0.3002966046333313,0.13201916217803955
1715439376250302500,6.482302490234375,0.303466796875,-0.2200273871421814,0.25791728496551514
1715439376260308200,6.49230810546875,-0.17345714569091797,0.49814748764038086,-0.4480440616607666
1715439376270314200,6.502314208984375,-0.4592781066894531,0.27599000930786133,0.12026333808898926
1715439376280320300,6.5123203125,-0.44472503662109375,-0.008972525596618652,0.45255160331726074
1715439376290326300,6.522326171875,-0.3707418441772461,-0.056606411933898926,0.19155406951904297
1715439376300332300,6.532332275390625,0.06029319763183594,0.16312742233276367,0.4136756658554077
1715439376310338300,6.54233837890625,-0.005801200866699219,0.1386491060256958,0.18685030937194824
1715439376320344300,6.55234423828125,-0.02894878387451172,0.06280362606048584,0.03801107406616211
1715439376330350300,6.562350341796875,-0.16988182067871094,0.08328354358673096,-0.23309850692749023
1715439376340356400,6.5723564453125,-0.3095407485961914,-0.04221999645233154,-0.3692120313644409
1715439376350362400,6.5823623046875,-0.0034265518188476562,0.13795530796051025,0.15714871883392334
1715439376360368000,6.5923681640625,-0.1827716827392578,0.14115500450134277,0.09593033790588379
1715439376370374100,6.6023740234375,-0.22775745391845703,0.0751180648803711,0.061345696449279785
1715439376380380200,6.612380126953125,-0.23946571350097656,0.0026503801345825195,-0.11715292930603027
1715439376390386200,6.62238623046875,-0.13810253143310547,-0.07176482677459717,-0.137581467628479
1715439376400392200,6.63239208984375,-0.00995635986328125,-0.0974198579788208,-0.11709904670715332
1715439376410398200,6.642398193359375,0.10219860076904297,-0.09474527835845947,-0.05612349510192871
1715439376420404200,6.652404296875,-0.027709007263183594,-0.16257011890411377,-0.22190070152282715
1715439376430410200,6.66241015625,0.2063760757446289,-0.21296817064285278,-0.023565292358398438
1715439376440416300,6.672416259765625,0.3201303482055664,-0.00853586196899414,0.22761917114257812
1715439376450422300,6.68242236328125,0.07907962799072266,-0.011327505111694336,0.2009110450744629
1715439376460428000,6.692427978515625,-0.04111957550048828,-0.07669299840927124,0.14061081409454346
1715439376470434000,6.70243408203125,0.21825218200683594,0.10505461692810059,0.48752355575561523
1715439376480440000,6.712440185546875,0.016633033752441406,0.080330491065979,0.37219929695129395
1715439376490446000,6.722446044921875,-0.07383155822753906,0.07557713985443115,0.25703561305999756
1715439376500452000,6.7324521484375,-0.054927825927734375,0.06213831901550293,0.17458391189575195
1715439376510458000,6.7424580078125,-0.09776687622070312,-0.025743961334228516,0.11336767673492432
1715439376520464100,6.752464111328125,-0.0693502426147461,-0.03621065616607666,0.039223670959472656
1715439376530470100,6.76247021484375,0.010653495788574219,-0.05123639106750488,0.058675289154052734
1715439376540476200,6.77247607421875,-0.009479522705078125,-0.09479659795761108,0.0824052095413208
1715439376550482000,6.78248193359375,-0.03422832489013672,-0.08093327283859253,-0.010363101959228516
1715439376560488000,6.792488037109375,-0.04917335510253906,-0.08583778142929077,-0.073325514793396
1715439376570494000,6.802493896484375,-0.04956340789794922,-0.06692415475845337,-0.07541906833648682
1715439376580500000,6.8125,-0.030855178833007812,-0.04836612939834595,-0.01333463191986084
1715439376590506000,6.822506103515625,-0.05473804473876953,-0.04396289587020874,0.02327442169189453
1715439376600512000,6.832511962890625,-0.07837963104248047,-0.039030373096466064,0.03642380237579346
1715439376610518000,6.84251806640625,-0.06411933898925781,-0.04278987646102905,-0.02068459987640381
1715439376620524000,6.85252392578125,-0.05025196075439453,-0.045884907245635986,-0.1185004711151123
1715439376630530000,6.862530029296875,0.024460792541503906,-0.06738078594207764,-0.14330077171325684
1715439376640536000,6.8725361328125,0.11681556701660156,-0.0892554521560669,-0.10151886940002441
1715439376650541800,6.882541748046875,0.13251304626464844,-0.11650460958480835,-0.042377471923828125
1715439376660547800,6.8925478515625,0.1483163833618164,-0.09288513660430908,0.028240203857421875
1715439376670553900,6.902553955078125,0.10770797729492188,-0.07532334327697754,0.05810427665710449
1715439376680559900,6.912559814453125,0.07728958129882812,-0.07266813516616821,0.10595691204071045
1715439376690566000,6.92256591796875,0.11793708801269531,-0.037755727767944336,0.14933252334594727
1715439376700572000,6.932572021484375,0.07294273376464844,-0.013629257678985596,0.08586013317108154
1715439376710578000,6.942577880859375,0.004866600036621094,-0.013727903366088867,0.07294094562530518
1715439376720584000,6.952583984375,-0.0858011245727539,-0.01389777660369873,0.05701947212219238
1715439376730590000,6.96258984375,-0.1092691421508789,-0.032472431659698486,0.033446311950683594
1715439376740596000,6.972595947265625,-0.09963512420654297,-0.04076123237609863,0.011846184730529785
1715439376750601700,6.982601806640625,-0.13270950317382812,-0.04333466291427612,-0.022756338119506836
1715439376760607700,6.992607666015625,-0.16524696350097656,-0.06857448816299438,-0.02423405647277832
1715439376770613800,7.00261376953125,-0.2160654067993164,-0.06337893009185791,-0.008196234703063965
1715439376780619800,7.012619873046875,-0.1341543197631836,-0.06559622287750244,-0.022553682327270508
1715439376790625800,7.022625732421875,0.050098419189453125,-0.05297720432281494,0.03258049488067627
1715439376800631800,7.0326318359375,0.2173471450805664,-0.05585777759552002,0.020318150520324707
1715439376810637800,7.042637939453125,0.25946044921875,-0.0561901330947876,0.004753232002258301
1715439376820643800,7.052643798828125,0.20209121704101562,-0.077037513256073,-0.04763758182525635
1715439376830649900,7.06264990234375,0.07050609588623047,-0.08918243646621704,-0.14197957515716553
1715439376840656000,7.07265576171875,0.07769203186035156,-0.09651076793670654,-0.16890746355056763
1715439376850662000,7.082661865234375,0.0990133285522461,-0.057045936584472656,-0.16310840845108032
1715439376860668000,7.09266796875,0.08720779418945312,-0.052127838134765625,-0.11581158638000488
1715439376870674000,7.102673828125,-0.004460334777832031,-0.0428583025932312,-0.1159977912902832
1715439376880680000,7.112679931640625,-0.028794288635253906,-0.0191764235496521,-0.12019222974777222
1715439376890686000,7.12268603515625,-0.024557113647460938,-0.051746487617492676,-0.12402909994125366
1715439376900692000,7.13269189453125,0.012477874755859375,-0.05526268482208252,-0.10358220338821411
1715439376910698000,7.142697998046875,0.06294059753417969,-0.035043179988861084,-0.06865334510803223
1715439376920704000,7.1527041015625,0.093658447265625,-0.038797199726104736,-0.014652013778686523
1715439376930710300,7.162710205078125,0.039183616638183594,-0.023952960968017578,-0.023067593574523926
1715439376940716300,7.17271630859375,-0.009496688842773438,-0.01862996816635132,-0.014174818992614746
1715439376950722300,7.182722412109375,0.03702259063720703,-0.05559897422790527,-0.03578782081604004
1715439376960728300,7.192728271484375,0.1018362045288086,-0.0596386194229126,0.011994481086730957
1715439376970734300,7.202734375,0.12334728240966797,-0.05978894233703613,0.03008568286895752
1715439376980740400,7.212740234375,0.11160755157470703,-0.06065201759338379,0.03375089168548584
1715439376990746400,7.222746337890625,0.10492134094238281,-0.02421867847442627,0.041020870208740234
1715439377000752400,7.23275244140625,0.09374427795410156,-0.06872385740280151,0.014474153518676758
1715439377010758400,7.24275830078125,0.0968770980834961,-0.09385710954666138,0.0262448787689209
1715439377020764400,7.252764404296875,0.062256813049316406,-0.062202274799346924,0.03355109691619873
1715439377030770700,7.262770751953125,-0.009507179260253906,-0.054557085037231445,0.05531179904937744
1715439377040776700,7.272776611328125,-0.06589126586914062,-0.018521547317504883,0.038260817527770996
1715439377050782700,7.28278271484375,-0.18728065490722656,-0.015154659748077393,-0.059137165546417236
1715439377060788700,7.292788818359375,-0.10434532165527344,-0.04332387447357178,-0.14051753282546997
1715439377070794800,7.302794677734375,-0.008736610412597656,-0.023440003395080566,-0.17793577909469604
1715439377080800800,7.31280078125,0.09947490692138672,-0.018530309200286865,-0.20550405979156494
1715439377090806800,7.322806884765625,0.13082027435302734,-0.04785662889480591,-0.2247573733329773
1715439377100812800,7.332812744140625,0.10532093048095703,-0.04023188352584839,-0.22077667713165283
1715439377110818800,7.34281884765625,0.014436721801757812,-0.01921159029006958,-0.12791675329208374
1715439377120824800,7.352824951171875,-0.056077003479003906,-0.05990636348724365,-0.08844804763793945
1715439377130831000,7.3628310546875,-0.10664176940917969,-0.07132190465927124,-0.0823291540145874
1715439377140837000,7.372837158203125,-0.13762950897216797,-0.03959447145462036,-0.0193558931350708
1715439377150843100,7.382843017578125,-0.13060474395751953,0.0019028782844543457,0.08580440282821655
1715439377160849200,7.39284912109375,-0.11446094512939453,0.01549142599105835,0.12409782409667969
1715439377170855200,7.402855224609375,-0.06595039367675781,-0.026339232921600342,0.10250407457351685
1715439377180861200,7.412861083984375,0.042771339416503906,-0.03888285160064697,0.05933266878128052
1715439377190867200,7.4228671875,0.13084793090820312,-0.07520979642868042,0.017330467700958252
1715439377200873200,7.432873291015625,0.17046070098876953,-0.07939374446868896,-0.04230219125747681
1715439377210879200,7.442879150390625,0.07300853729248047,-0.00905078649520874,-0.021444737911224365
1715439377220885200,7.45288525390625,-0.046108245849609375,-0.06717610359191895,-0.0833776593208313
1715439377230891300,7.462891357421875,-0.09233951568603516,-0.09611541032791138,-0.19409596920013428
1715439377240897000,7.47289697265625,-0.10004138946533203,-0.07720392942428589,-0.16762298345565796
1715439377250903000,7.482903076171875,0.0006933212280273438,-0.09158092737197876,-0.06634277105331421
1715439377260909000,7.492908935546875,0.09033203125,-0.09188032150268555,-0.0465090274810791
1715439377270915000,7.5029150390625,0.12194442749023438,-0.11664086580276489,-0.044610440731048584
1715439377280921000,7.512921142578125,0.13890361785888672,-0.12786972522735596,-0.008778035640716553
1715439377290927000,7.522927001953125,0.12256431579589844,-0.10657817125320435,0.07478362321853638
1715439377300933000,7.53293310546875,0.08289813995361328,0.026761651039123535,0.20054781436920166
1715439377310939100,7.542939208984375,-0.1348438262939453,0.01657557487487793,0.2799370288848877
1715439377320945200,7.552945068359375,-0.2547769546508789,-0.0910024642944336,0.16353219747543335
1715439377330951200,7.562951171875,-0.21277904510498047,-0.1011553406715393,0.07279330492019653
1715439377340957000,7.57295703125,-0.1386699676513672,-0.10116535425186157,0.09755551815032959
1715439377350963000,7.582962890625,-0.12239933013916016,-0.09121173620223999,0.08000731468200684
1715439377360969000,7.592968994140625,-0.0877237319946289,-0.05763190984725952,0.031183183193206787
1715439377370975000,7.60297509765625,-0.03034687042236328,-0.07599478960037231,-0.03801524639129639
1715439377380981000,7.61298095703125,0.007293701171875,-0.01897984743118286,-0.0074253082275390625
1715439377390987000,7.622987060546875,-0.02108478546142578,-0.03444516658782959,0.04627782106399536
1715439377400993000,7.632992919921875,-0.0956869125366211,-0.1206817626953125,-0.10237199068069458
1715439377410999000,7.6429990234375,-0.018303871154785156,-0.16764211654663086,-0.16467899084091187
1715439377421005000,7.653005126953125,0.08138275146484375,-0.18110859394073486,-0.1791267991065979
1715439377431011000,7.663010986328125,0.2595634460449219,-0.1763218641281128,-0.2831233739852905
1715439377441016800,7.673016845703125,0.43039512634277344,-0.1222081184387207,-0.21217113733291626
1715439377451022800,7.68302294921875,0.4104146957397461,-0.053412020206451416,-0.10057973861694336
1715439377461028900,7.69302880859375,0.19315052032470703,-0.0017092227935791016,0.03317147493362427
1715439377471035000,7.703034912109375,-0.0017223358154296875,0.049175381660461426,0.16546928882598877
1715439377481041000,7.713041015625,-0.1604900360107422,0.06737756729125977,0.22023487091064453
1715439377491047000,7.723046875,-0.25560760498046875,0.0918189287185669,0.2037903070449829
1715439377501053000,7.733052978515625,-0.3165464401245117,0.09457099437713623,0.23143744468688965
1715439377511059000,7.743058837890625,-0.3393592834472656,0.07176554203033447,0.2755526900291443
1715439377521065000,7.75306494140625,-0.3624134063720703,0.023988962173461914,0.19505351781845093
1715439377531070700,7.76307080078125,-0.3479347229003906,-0.001280665397644043,0.07576042413711548
1715439377541076700,7.77307666015625,-0.16443920135498047,-0.0003660917282104492,0.010481655597686768
1715439377551082800,7.783082763671875,0.03963661193847656,-0.04139357805252075,-0.07391899824142456
1715439377561088800,7.7930888671875,0.20763015747070312,-0.04981929063796997,-0.14921802282333374
1715439377571094800,7.8030947265625,0.21300315856933594,-0.050406455993652344,-0.2053723931312561
1715439377581100800,7.813100830078125,0.16193199157714844,-0.061499595642089844,-0.18559378385543823
1715439377591106800,7.82310693359375,0.15419483184814453,-0.05911487340927124,-0.17575788497924805
1715439377601112800,7.83311279296875,0.18445873260498047,-0.03447085618972778,-0.1763128638267517
1715439377611118800,7.843118896484375,0.12492847442626953,-0.025608956813812256,-0.15381848812103271
1715439377621124900,7.853124755859375,0.02873516082763672,-0.03609198331832886,-0.10319209098815918
1715439377631130600,7.863130615234375,-0.05655670166015625,-0.012928664684295654,-0.03385800123214722
1715439377641136600,7.87313671875,-0.08403778076171875,-0.02664816379547119,0.029571712017059326
1715439377651142700,7.883142578125,0.006524085998535156,-0.06290072202682495,-0.0016738176345825195
1715439377661148700,7.893148681640625,0.029601097106933594,-0.04686659574508667,0.0012892484664916992
1715439377671154700,7.90315478515625,0.03336524963378906,-0.026279568672180176,0.038075149059295654
1715439377681160700,7.91316064453125,0.037143707275390625,-0.02027350664138794,0.026455700397491455
1715439377691166700,7.923166748046875,0.055126190185546875,-0.05212956666946411,-0.0005401968955993652
1715439377701172700,7.9331728515625,0.07762432098388672,-0.0791279673576355,0.01454317569732666
1715439377711178800,7.9431787109375,0.05272483825683594,-0.08275777101516724,0.0670546293258667
1715439377721184800,7.953184814453125,-0.018881797790527344,-0.09117549657821655,0.08628463745117188
1715439377731190500,7.9631904296875,-0.03754138946533203,-0.0944928526878357,0.09123265743255615
1715439377741196500,7.973196533203125,-0.055835723876953125,-0.11170375347137451,0.0858919620513916
1715439377751202600,7.98320263671875,-0.03146839141845703,-0.15198445320129395,0.07124346494674683
1715439377761208600,7.99320849609375,-0.06406784057617188,-0.1443309187889099,0.10436546802520752
