time,seconds_elapsed,z,y,x
1715439484173687600,0.1256875,-0.008099555969238281,-0.001506805419921875,-0.17589813470840454
1715439484183698200,0.1356982421875,-0.07602310180664062,-0.006260395050048828,-0.14872518181800842
1715439484193709300,0.145709228515625,-0.10400581359863281,-0.00942087173461914,-0.11903200298547745
1715439484203721000,0.155720947265625,-0.0824594497680664,0.001628875732421875,-0.09059979021549225
1715439484213732900,0.16573291015625,-0.041131019592285156,0.0032901763916015625,-0.101900115609169
1715439484223744800,0.175744873046875,-0.016260147094726562,0.000025510787963867188,-0.11424392461776733
1715439484233752300,0.18575244140625,-0.04219818115234375,0.0054378509521484375,-0.09650857746601105
1715439484243758600,0.195758544921875,-0.062193870544433594,0.01931929588317871,-0.09088030457496643
1715439484253764600,0.2057646484375,-0.045157432556152344,0.014137983322143555,-0.09628018736839294
1715439484263771000,0.21577099609375,-0.051807403564453125,0.013618707656860352,-0.07107439637184143
1715439484273777200,0.225777099609375,-0.058269500732421875,0.022142648696899414,-0.0714823454618454
1715439484283783200,0.235783203125,-0.07373428344726562,0.016844749450683594,-0.06866176426410675
1715439484293789400,0.24578955078125,-0.0796499252319336,0.012329816818237305,-0.030053570866584778
1715439484303795700,0.255795654296875,-0.09470367431640625,0.00843954086303711,-0.04315273463726044
1715439484313802000,0.265802001953125,-0.11856746673583984,0.014387845993041992,-0.05067501962184906
1715439484323808000,0.27580810546875,-0.13720417022705078,0.006937742233276367,-0.07115446031093597
1715439484333814300,0.285814208984375,-0.1325244903564453,-0.00860905647277832,-0.048753708600997925
1715439484343820500,0.295820556640625,-0.10990047454833984,-0.013967514038085938,-0.03576295077800751
1715439484353826600,0.30582666015625,-0.06979656219482422,-0.019244670867919922,-0.05945661664009094
1715439484363832800,0.315832763671875,-0.114410400390625,-0.03329610824584961,-0.0180901437997818
1715439484373839000,0.325839111328125,-0.03770256042480469,0.023435354232788086,-0.09635269641876221
1715439484383845400,0.335845458984375,-0.042285919189453125,0.0920870304107666,-0.03961624205112457
1715439484393851400,0.345851318359375,-0.05141162872314453,0.07048296928405762,-0.06608271598815918
1715439484403857700,0.355857666015625,-0.0927896499633789,0.0588991641998291,-0.13509783148765564
1715439484413864000,0.365864013671875,-0.17485618591308594,0.05729794502258301,-0.11407111585140228
1715439484423870000,0.375869873046875,-0.2130146026611328,0.0612330436706543,-0.07947071641683578
1715439484433876200,0.385876220703125,-0.21797657012939453,0.03838491439819336,-0.07397866994142532
1715439484443882500,0.395882568359375,-0.14420127868652344,0.022442102432250977,-0.09677372127771378
1715439484453888800,0.405888671875,-0.058747291564941406,-0.010801076889038086,-0.06313559412956238
1715439484463894800,0.415894775390625,0.024445533752441406,-0.0058782100677490234,-0.024596713483333588
1715439484473901000,0.425901123046875,0.0731973648071289,-0.01637411117553711,-0.004035331308841705
1715439484483907300,0.4359072265625,0.13525390625,-0.019169330596923828,-0.024048104882240295
1715439484493913300,0.445913330078125,0.18249130249023438,-0.024500131607055664,-0.04606691002845764
1715439484503919600,0.455919677734375,0.17788982391357422,-0.027536630630493164,-0.08397480100393295
1715439484513926000,0.46592578125,0.14127635955810547,-0.028041362762451172,-0.15251189470291138
1715439484523932200,0.47593212890625,0.08248329162597656,-0.02517247200012207,-0.17658010125160217
1715439484533938200,0.485938232421875,0.04863739013671875,-0.01849961280822754,-0.17649412155151367
1715439484543944400,0.4959443359375,0.02021312713623047,-0.002511262893676758,-0.13909956812858582
1715439484553950700,0.50595068359375,0.034432411193847656,-0.019064664840698242,-0.11304913461208344
1715439484563956700,0.515956787109375,0.04351997375488281,-0.006545543670654297,-0.1322278380393982
1715439484573963000,0.525962890625,0.014729499816894531,0.015796184539794922,-0.1349891722202301
1715439484583969300,0.53596923828125,0.005120277404785156,0.019627094268798828,-0.09659195691347122
1715439484593975600,0.5459755859375,0.08027935028076172,-0.0003833770751953125,-0.06807394325733185
1715439484603981600,0.555981689453125,0.10256385803222656,-0.002028942108154297,-0.04844203591346741
1715439484613987800,0.56598779296875,0.13883304595947266,-0.023541927337646484,0.0008223801851272583
1715439484623994000,0.575994140625,0.13250255584716797,-0.022472143173217773,0.04157906025648117
1715439484634000100,0.586000244140625,0.07008934020996094,0.010775566101074219,-0.001961424946784973
1715439484644006400,0.59600634765625,-0.0053615570068359375,0.02962470054626465,-0.07741355895996094
1715439484654012700,0.6060126953125,-0.05145549774169922,0.05836367607116699,-0.08645092695951462
1715439484664019000,0.61601904296875,-0.10164546966552734,0.07791686058044434,-0.08211816847324371
1715439484674025000,0.62602490234375,-0.13251972198486328,0.07032632827758789,-0.13016052544116974
1715439484684031200,0.63603125,-0.059688568115234375,0.03613734245300293,-0.10748041421175003
1715439484694037500,0.64603759765625,0.05896282196044922,0.012138843536376953,-0.010397214442491531
1715439484704043500,0.65604345703125,0.12401485443115234,0.039632558822631836,-0.008404769003391266
1715439484714049800,0.6660498046875,0.14589881896972656,0.03720903396606445,-0.047341592609882355
1715439484724056000,0.67605615234375,0.10650157928466797,0.014783620834350586,-0.0702471137046814
1715439484734062000,0.68606201171875,-0.002620697021484375,0.0011410713195800781,-0.05870218575000763
1715439484744068400,0.696068359375,-0.10042667388916016,-0.017284631729125977,-0.03211560100317001
1715439484754074600,0.70607470703125,-0.16851329803466797,-0.015862464904785156,-0.052555009722709656
1715439484764081000,0.716080810546875,-0.2169656753540039,0.019904613494873047,-0.06811889261007309
1715439484774087000,0.7260869140625,-0.23206710815429688,0.04265761375427246,-0.07065074890851974
1715439484784093200,0.73609326171875,-0.22384929656982422,0.05752229690551758,-0.056942179799079895
1715439484794099500,0.746099365234375,-0.13129901885986328,0.04499197006225586,-0.008882291615009308
1715439484804105500,0.75610546875,-0.0639200210571289,0.04709768295288086,-0.025372330099344254
1715439484814111700,0.76611181640625,-0.0022573471069335938,0.03924751281738281,-0.034176312386989594
1715439484824118000,0.776117919921875,0.02095508575439453,0.025814056396484375,-0.01988942176103592
1715439484834124300,0.786124267578125,0.04883861541748047,-0.012344121932983398,-0.00896449014544487
1715439484844130300,0.79613037109375,0.08131599426269531,-0.018312454223632812,-0.0006175599992275238
1715439484854136600,0.806136474609375,0.0805654525756836,-0.0158689022064209,0.010353182442486286
1715439484864142800,0.816142822265625,0.018744468688964844,-0.009259700775146484,-0.004347212612628937
1715439484874148900,0.82614892578125,-0.013933181762695312,0.007260799407958984,-0.016944492235779762
1715439484884155100,0.836155029296875,-0.046280860900878906,0.0055768489837646484,-0.038222648203372955
1715439484894161400,0.846161376953125,-0.0689382553100586,0.009735345840454102,-0.08299139142036438
1715439484904167700,0.856167724609375,-0.08206653594970703,0.019638776779174805,-0.08987240493297577
1715439484914173700,0.866173583984375,-0.08104419708251953,0.04901576042175293,-0.07825896888971329
1715439484924180000,0.876179931640625,-0.0849151611328125,0.05035567283630371,-0.09504245221614838
1715439484934186200,0.886186279296875,-0.0935516357421875,0.038050174713134766,-0.09316620230674744
1715439484944192300,0.896192138671875,-0.08801937103271484,0.045186519622802734,-0.09721177816390991
1715439484954198500,0.906198486328125,-0.05440521240234375,0.04308772087097168,-0.0886719599366188
1715439484964204800,0.916204833984375,-0.0072536468505859375,0.07408523559570312,-0.07684816420078278
1715439484974211000,0.926211181640625,0.06275081634521484,0.06649613380432129,-0.04678909108042717
1715439484984217000,0.936217041015625,0.0988931655883789,0.04851174354553223,-0.012498946860432625
1715439484994223400,0.946223388671875,0.07826900482177734,0.03883767127990723,-0.020708313211798668
1715439485004229600,0.956229736328125,0.03466320037841797,0.03312873840332031,-0.0282785315066576
1715439485014235600,0.966235595703125,0.024866104125976562,0.027012109756469727,-0.011777546256780624
1715439485024242000,0.976241943359375,0.015352249145507812,0.0346217155456543,-0.009907441213726997
1715439485034248200,0.986248291015625,-0.008199691772460938,0.061240196228027344,-0.04576140269637108
1715439485044254500,0.99625439453125,-0.012691497802734375,0.0881192684173584,-0.05314001068472862
1715439485054260500,1.006260498046875,0.0628662109375,0.06776642799377441,0.000940580852329731
1715439485064266800,1.016266845703125,0.11379146575927734,0.047049522399902344,0.02674010582268238
1715439485074273000,1.02627294921875,0.10753345489501953,0.0400996208190918,-0.003167096059769392
1715439485084279000,1.036279052734375,0.06383323669433594,0.03276252746582031,-0.02248285710811615
1715439485094285300,1.046285400390625,-0.0026092529296875,0.044080257415771484,-0.054773297160863876
1715439485104291600,1.05629150390625,-0.06325721740722656,0.0647275447845459,-0.07109158486127853
1715439485114297600,1.066297607421875,-0.07121849060058594,0.05257391929626465,-0.05858457460999489
1715439485124304000,1.076303955078125,-0.0932474136352539,0.04092526435852051,-0.04230586066842079
1715439485134310100,1.08631005859375,-0.14806461334228516,0.07736039161682129,-0.03732111304998398
1715439485144316400,1.09631640625,-0.18818378448486328,0.07692646980285645,-0.04331311956048012
1715439485154322400,1.106322509765625,-0.12438392639160156,0.04494619369506836,-0.03610464185476303
1715439485164328700,1.11632861328125,-0.0004119873046875,0.013398408889770508,-0.015995344147086143
1715439485174335000,1.1263349609375,0.03220176696777344,0.02405071258544922,-0.00556580163538456
1715439485184341000,1.136341064453125,0.007891654968261719,0.04814910888671875,-0.022681528702378273
1715439485194347300,1.14634716796875,-0.02067279815673828,0.0528109073638916,-0.06718478351831436
1715439485204353500,1.156353515625,-0.025194168090820312,0.05258607864379883,-0.08739954978227615
1715439485214359800,1.16635986328125,-0.039008140563964844,0.06158137321472168,-0.11741854250431061
1715439485224366000,1.176365966796875,-0.01494598388671875,0.03285956382751465,-0.1914939284324646
1715439485234372400,1.186372314453125,0.01804065704345703,0.028563261032104492,-0.2251136600971222
1715439485244378600,1.196378662109375,0.09762096405029297,0.0053064823150634766,-0.16192632913589478
1715439485254385000,1.206385009765625,0.05824470520019531,-0.008443117141723633,-0.10518187284469604
1715439485264391200,1.21639111328125,0.0006475448608398438,0.006491422653198242,-0.03843855857849121
1715439485274397200,1.226397216796875,-0.023075103759765625,-0.025708913803100586,-0.013535726815462112
1715439485284403500,1.236403564453125,-0.06998538970947266,-0.024213790893554688,-0.045558422803878784
1715439485294409700,1.24640966796875,-0.10682964324951172,-0.003306865692138672,-0.05400994047522545
1715439485304416000,1.256416015625,-0.10554790496826172,0.017955303192138672,-0.05826577544212341
1715439485314422300,1.26642236328125,-0.11379432678222656,0.0533902645111084,-0.019746214151382446
1715439485324428500,1.276428466796875,-0.06541156768798828,0.041147470474243164,0.02049212157726288
1715439485334434800,1.286434814453125,-0.012988090515136719,0.02369213104248047,0.08263223618268967
1715439485344441000,1.296441162109375,0.0010471343994140625,0.043385982513427734,0.05836028605699539
1715439485354447400,1.306447265625,0.0008573532104492188,0.05733656883239746,0.019247516989707947
1715439485364453600,1.31645361328125,-0.036922454833984375,0.05652666091918945,-0.030903413891792297
1715439485374460000,1.3264599609375,-0.11179542541503906,0.03238868713378906,-0.08342017978429794
1715439485384466200,1.336466064453125,-0.1903676986694336,0.09441900253295898,-0.13455215096473694
1715439485394472200,1.34647216796875,-0.26341915130615234,0.1999070644378662,-0.17012128233909607
1715439485404478500,1.356478515625,-0.11914730072021484,0.07973456382751465,-0.15389999747276306
1715439485414484700,1.366484619140625,-0.052954673767089844,0.03840804100036621,-0.17394006252288818
1715439485424491000,1.376490966796875,-0.03524971008300781,0.09795713424682617,-0.14284352958202362
1715439485434497300,1.386497314453125,0.05270576477050781,0.08628630638122559,-0.08979487419128418
1715439485444503600,1.396503662109375,0.08280086517333984,0.05086636543273926,-0.04970842972397804
1715439485454509800,1.406509765625,0.17858314514160156,0.05260205268859863,-0.0013013584539294243
1715439485464516000,1.41651611328125,0.16972637176513672,0.0378727912902832,0.02392873726785183
1715439485474522400,1.4265224609375,0.09086036682128906,0.04021286964416504,-0.035216450691223145
1715439485484528600,1.436528564453125,0.004199028015136719,0.04591488838195801,-0.07922560721635818
1715439485494535000,1.446534912109375,-0.06674861907958984,0.06504321098327637,-0.07621991634368896
1715439485504541200,1.456541259765625,-0.1365365982055664,0.07924461364746094,-0.0608958937227726
1715439485514547200,1.466547119140625,-0.17234039306640625,0.06556057929992676,-0.03894795849919319
1715439485524553500,1.476553466796875,-0.14649677276611328,0.062226057052612305,0.01731085777282715
1715439485534559700,1.486559814453125,-0.1588144302368164,0.06866645812988281,0.051332853734493256
1715439485544566000,1.49656591796875,-0.18035411834716797,0.07039237022399902,0.03090808540582657
1715439485554572300,1.506572265625,-0.19214153289794922,0.04404115676879883,0.01778518408536911
1715439485564578600,1.51657861328125,-0.18967247009277344,-0.000301361083984375,-0.03932427614927292
1715439485574584800,1.526584716796875,-0.1873931884765625,-0.02436208724975586,-0.02887091413140297
1715439485584591000,1.536591064453125,-0.13825416564941406,-0.0519251823425293,0.06406920403242111
1715439485594597000,1.54659716796875,-0.057102203369140625,-0.08795046806335449,0.07372904568910599
1715439485604603400,1.556603271484375,0.017973899841308594,-0.11396360397338867,0.0246894508600235
1715439485614609700,1.566609619140625,0.08704566955566406,-0.08765053749084473,-0.016043923795223236
1715439485624615700,1.57661572265625,0.15971660614013672,-0.043244361877441406,-0.0013222768902778625
1715439485634622000,1.5866220703125,0.2266387939453125,-0.02863788604736328,-0.00874350219964981
1715439485644628200,1.596628173828125,0.24563217163085938,-0.010774612426757812,-0.06243124231696129
1715439485654634500,1.606634521484375,0.22218799591064453,0.0056858062744140625,-0.08714983612298965
1715439485664640500,1.616640625,0.20878982543945312,0.01615428924560547,-0.046349238604307175
1715439485674646800,1.626646728515625,0.18644332885742188,0.034854888916015625,-0.0407850556075573
1715439485684653000,1.636653076171875,0.1411113739013672,0.04311966896057129,-0.07545388489961624
1715439485694659000,1.6466591796875,0.09196758270263672,0.05074262619018555,-0.0744951069355011
1715439485704665300,1.656665283203125,0.04842662811279297,0.03449106216430664,-0.06670844554901123
1715439485714671600,1.666671630859375,0.02443218231201172,0.04225492477416992,-0.0896659791469574
1715439485724678000,1.676677978515625,-0.00867462158203125,0.07393646240234375,-0.08494170010089874
1715439485734684000,1.686683837890625,0.015162467956542969,0.07734417915344238,-0.05611633509397507
1715439485744690200,1.696690185546875,0.03383159637451172,0.06676912307739258,-0.04018464684486389
1715439485754696400,1.706696533203125,-0.004363059997558594,0.0658872127532959,-0.05045338720083237
1715439485764702500,1.716702392578125,0.009768486022949219,0.07474017143249512,-0.04863816499710083
1715439485774708700,1.726708740234375,0.023698806762695312,0.059598684310913086,-0.0020349621772766113
1715439485784715000,1.736715087890625,-0.004994392395019531,0.06814408302307129,-0.01488696038722992
1715439485794721300,1.74672119140625,0.013871192932128906,0.06702828407287598,-0.058547452092170715
1715439485804727300,1.756727294921875,0.037166595458984375,0.061022043228149414,-0.08654814958572388
1715439485814733600,1.766733642578125,0.05070686340332031,0.05962181091308594,-0.09059323370456696
1715439485824739800,1.77673974609375,0.06412601470947266,0.06255030632019043,-0.10477039217948914
1715439485834745900,1.786745849609375,0.06334590911865234,0.0695350170135498,-0.11951667070388794
1715439485844752100,1.796752197265625,0.034415245056152344,0.06668329238891602,-0.12127828598022461
1715439485854758400,1.80675830078125,-0.03168010711669922,0.06859207153320312,-0.14833565056324005
1715439485864764700,1.8167646484375,-0.11096668243408203,0.0995330810546875,-0.15302607417106628
1715439485874770700,1.826770751953125,-0.11380672454833984,0.1027216911315918,-0.14526304602622986
1715439485884777000,1.83677685546875,-0.09327220916748047,0.08332967758178711,-0.11074841022491455
1715439485894783200,1.846783203125,-0.07326412200927734,0.06978273391723633,-0.08165641129016876
1715439485904789200,1.856789306640625,-0.05837249755859375,0.052059173583984375,-0.0337805449962616
1715439485914795500,1.86679541015625,-0.04847526550292969,0.05356764793395996,-0.008959315717220306
1715439485924801800,1.8768017578125,-0.038695335388183594,0.04532599449157715,-0.0015811771154403687
1715439485934807800,1.886807861328125,-0.04319953918457031,0.07478809356689453,-0.011828027665615082
1715439485944814000,1.89681396484375,-0.07593536376953125,0.08512616157531738,-0.03542567044496536
1715439485954820400,1.9068203125,-0.08465957641601562,0.0626366138458252,-0.0533636212348938
1715439485964826600,1.91682666015625,-0.06975555419921875,0.026598691940307617,-0.08414475619792938
1715439485974832600,1.92683251953125,-0.05511283874511719,0.00047779083251953125,-0.05058354139328003
1715439485984839000,1.9368388671875,-0.04543495178222656,-0.011188268661499023,-0.033202797174453735
1715439485994845200,1.94684521484375,-0.026520729064941406,-0.02266836166381836,-0.07504788041114807
1715439486004851200,1.956851318359375,-0.017351150512695312,0.0038099288940429688,-0.12544289231300354
1715439486014857500,1.966857421875,-0.027261734008789062,0.02564215660095215,-0.17598161101341248
1715439486024863700,1.97686376953125,-0.032431602478027344,0.04781842231750488,-0.18556168675422668
1715439486034870000,1.9868701171875,0.014173507690429688,0.05139732360839844,-0.14645549654960632
1715439486044876000,1.9968759765625,0.022223472595214844,0.03668808937072754,-0.09742267429828644
1715439486054882300,2.00688232421875,0.04424476623535156,0.050679922103881836,-0.07584057003259659
1715439486064888600,2.016888671875,0.06125068664550781,0.05953168869018555,-0.05619858577847481
1715439486074894600,2.02689453125,0.09235095977783203,0.05771136283874512,-0.022356253117322922
1715439486084900900,2.03690087890625,0.05263710021972656,0.05912017822265625,-0.020651064813137054
1715439486094907100,2.0469072265625,0.023260116577148438,0.06400585174560547,-0.0077659934759140015
1715439486104913400,2.056913330078125,0.018146514892578125,0.07240867614746094,0.021169602870941162
1715439486114919400,2.06691943359375,-0.038596153259277344,0.07555913925170898,-0.014964178204536438
1715439486124925700,2.07692578125,-0.09453296661376953,0.0651392936706543,-0.05489242449402809
1715439486134932000,2.086931884765625,-0.1262187957763672,0.06061291694641113,-0.0522724948823452
1715439486144938000,2.09693798828125,-0.10123538970947266,0.07190132141113281,-0.04513420909643173
1715439486154944300,2.1069443359375,-0.02985668182373047,0.060668230056762695,-0.03795883432030678
1715439486164950500,2.116950439453125,0.044907569885253906,0.05493497848510742,-0.04991571977734566
1715439486174956800,2.126956787109375,0.0806283950805664,0.04990196228027344,-0.04342012479901314
1715439486184963000,2.136963134765625,0.0780029296875,0.04064798355102539,-0.05654941871762276
1715439486194969300,2.14696923828125,0.11780166625976562,0.03154754638671875,-0.036532238125801086
1715439486204975400,2.156975341796875,0.1382160186767578,0.03622007369995117,-0.04462878033518791
1715439486214981600,2.166981689453125,0.14438819885253906,0.06805706024169922,-0.052118923515081406
1715439486224988000,2.17698779296875,0.11314582824707031,0.060079097747802734,-0.07754427939653397
1715439486234994200,2.186994140625,0.049820899963378906,0.060036659240722656,-0.06427088379859924
1715439486245000400,2.19700048828125,-0.026393890380859375,0.07802152633666992,-0.06544520705938339
1715439486255006700,2.2070068359375,-0.08722686767578125,0.07697510719299316,-0.0775991752743721
1715439486265013000,2.217012939453125,-0.10943222045898438,0.08095932006835938,-0.03553790971636772
1715439486275019300,2.227019287109375,-0.1313934326171875,0.08548307418823242,-0.0005235038697719574
1715439486285025500,2.237025634765625,-0.09192657470703125,0.07180333137512207,-0.00016232207417488098
1715439486295031800,2.24703173828125,-0.07674217224121094,0.04462933540344238,-0.028865475207567215
1715439486305038000,2.2570380859375,-0.05241584777832031,0.0556795597076416,-0.042605262249708176
1715439486315044400,2.26704443359375,0.0139617919921875,0.047306060791015625,-0.026104111224412918
1715439486325050400,2.27705029296875,0.05585289001464844,0.028845787048339844,-0.05467700958251953
1715439486335056600,2.287056640625,0.06893730163574219,0.014695405960083008,-0.07133833318948746
1715439486345063000,2.29706298828125,0.058254241943359375,0.019616127014160156,-0.07240733504295349
1715439486355069200,2.307069091796875,0.04763603210449219,0.0343778133392334,-0.0781107172369957
1715439486365075500,2.317075439453125,0.013502120971679688,0.05901789665222168,-0.09406687319278717
1715439486375081700,2.327081787109375,-0.04851245880126953,0.041779518127441406,-0.07271628081798553
1715439486385088000,2.337087890625,-0.09083366394042969,0.011509895324707031,-0.05242810398340225
1715439486395094300,2.34709423828125,-0.10436725616455078,0.020219802856445312,-0.07612290978431702
1715439486405100500,2.3571005859375,-0.03299903869628906,0.05273079872131348,-0.09632900357246399
1715439486415106800,2.36710693359375,0.0654916763305664,0.07508230209350586,-0.09983108937740326
1715439486425113000,2.377113037109375,0.08250808715820312,0.07261085510253906,-0.10468918085098267
1715439486435119400,2.387119384765625,0.0665283203125,0.04081869125366211,-0.0671689435839653
1715439486445125400,2.39712548828125,0.06993675231933594,-0.0011754035949707031,-0.02479277178645134
1715439486455131600,2.407131591796875,0.026426315307617188,0.008310794830322266,-0.011062219738960266
1715439486465138000,2.417137939453125,-0.03041362762451172,0.017333030700683594,-0.030555322766304016
1715439486475144200,2.427144287109375,-0.048675537109375,0.045240163803100586,-0.08306516706943512
1715439486485150500,2.437150390625,-0.03848075866699219,0.0684812068939209,-0.0932975560426712
1715439486495156700,2.44715673828125,-0.019141197204589844,0.0918436050415039,-0.08040980994701385
1715439486505163000,2.4571630859375,-0.01904582977294922,0.0728452205657959,-0.07679438591003418
1715439486515169300,2.467169189453125,-0.033148765563964844,0.0733022689819336,-0.05372003838419914
1715439486525175600,2.477175537109375,-0.023450851440429688,0.05010795593261719,-0.05427006632089615
1715439486535181800,2.487181884765625,-0.013788223266601562,0.021984338760375977,-0.05868927389383316
1715439486545188000,2.49718798828125,-0.01836395263671875,0.03640103340148926,-0.05676694214344025
1715439486555194000,2.507194091796875,0.0006589889526367188,0.04115915298461914,-0.06265576183795929
1715439486565200400,2.517200439453125,0.033431053161621094,0.03662276268005371,-0.09077759087085724
1715439486575206700,2.52720654296875,0.05617237091064453,0.0418848991394043,-0.08541400730609894
1715439486585213000,2.537212890625,0.05499267578125,0.04234933853149414,-0.061384350061416626
1715439486595219200,2.54721923828125,0.030364990234375,0.04720807075500488,-0.052521713078022
1715439486605225500,2.5572255859375,0.010900497436523438,0.07071924209594727,-0.05013194680213928
1715439486615231700,2.567231689453125,0.010671615600585938,0.09834480285644531,-0.05952299386262894
1715439486625238000,2.577238037109375,-0.008268356323242188,0.10627412796020508,-0.07543021440505981
1715439486635244300,2.587244384765625,-0.03618621826171875,0.12298941612243652,-0.06812313199043274
1715439486645250300,2.597250244140625,-0.021045684814453125,0.08191132545471191,0.0011050403118133545
1715439486655256600,2.607256591796875,-0.03410911560058594,0.06364035606384277,0.004358991980552673
1715439486665262800,2.617262939453125,-0.08925437927246094,0.06881141662597656,-0.04791117459535599
1715439486675269000,2.62726904296875,-0.11998939514160156,0.06939578056335449,-0.046874575316905975
1715439486685275100,2.637275146484375,-0.09381961822509766,0.06576728820800781,-0.01760236918926239
1715439486695281400,2.647281494140625,-0.0870208740234375,0.0674126148223877,-0.03630663454532623
1715439486705287700,2.65728759765625,-0.08990669250488281,0.03678464889526367,-0.07372339814901352
1715439486715293700,2.667293701171875,-0.08818721771240234,0.016695499420166016,-0.038945406675338745
1715439486725300000,2.677300048828125,-0.053582191467285156,-0.007668018341064453,-0.0034126490354537964
1715439486735306200,2.68730615234375,-0.057244300842285156,-0.022215843200683594,-0.05673573911190033
1715439486745312500,2.6973125,-0.09385871887207031,-0.003357410430908203,-0.12762348353862762
1715439486755318500,2.707318603515625,-0.1346874237060547,0.0015671253204345703,-0.1547730565071106
1715439486765324800,2.71732470703125,-0.1467437744140625,0.021242618560791016,-0.17668303847312927
1715439486775331000,2.7273310546875,-0.14936065673828125,0.03679394721984863,-0.18067005276679993
1715439486785337000,2.737337158203125,-0.07666492462158203,0.05730605125427246,-0.1352027952671051
1715439486795343400,2.74734326171875,-0.00030422210693359375,0.04871726036071777,-0.06501711159944534
1715439486805349600,2.757349609375,0.02808094024658203,0.05287885665893555,-0.021368488669395447
1715439486815356000,2.76735595703125,0.014009475708007812,0.02239513397216797,-0.012571752071380615
1715439486825362000,2.77736181640625,-0.060698509216308594,0.00983738899230957,-0.03270973265171051
1715439486835368200,2.7873681640625,-0.16694259643554688,0.015513420104980469,-0.03773456811904907
1715439486845374500,2.79737451171875,-0.23858261108398438,0.0027604103088378906,-0.07457967102527618
1715439486855380500,2.80738037109375,-0.2716484069824219,0.010265350341796875,-0.08157064020633698
1715439486865386800,2.81738671875,-0.2574186325073242,0.014348268508911133,-0.05429619550704956
1715439486875393000,2.82739306640625,-0.18249988555908203,-0.022710084915161133,-0.018234238028526306
1715439486885399300,2.8373994140625,-0.07606792449951172,-0.04382753372192383,-0.032201215624809265
1715439486895405300,2.8474052734375,0.042710304260253906,-0.026322364807128906,-0.05476310849189758
1715439486905411600,2.85741162109375,0.16435813903808594,-0.02794671058654785,-0.07613864541053772
1715439486915417900,2.86741796875,0.25609874725341797,-0.011822700500488281,-0.07168115675449371
1715439486925423900,2.877423828125,0.25256919860839844,0.021246671676635742,-0.10571202635765076
1715439486935430100,2.88743017578125,0.19292831420898438,0.03382158279418945,-0.11674664914608002
1715439486945436400,2.8974365234375,0.10628318786621094,-0.0013976097106933594,-0.1111268401145935
1715439486955442700,2.907442626953125,0.011890411376953125,-0.017101287841796875,-0.04408597946166992
1715439486965448700,2.91744873046875,-0.05247688293457031,0.024533510208129883,-0.016415536403656006
1715439486975455000,2.927455078125,-0.08724784851074219,0.04248976707458496,-0.03702518343925476
1715439486985461200,2.937461181640625,-0.07376289367675781,0.03652358055114746,0.015323221683502197
1715439486995467300,2.94746728515625,-0.2153024673461914,0.02186441421508789,-0.1813325583934784
1715439487005473500,2.9574736328125,-0.2272043228149414,0.1175987720489502,-0.18077269196510315
1715439487015479800,2.967479736328125,-0.12534236907958984,0.09490799903869629,-0.0774192214012146
1715439487025485800,2.97748583984375,-0.1466522216796875,0.034952640533447266,-0.09523320198059082
1715439487035492000,2.9874921875,-0.1807699203491211,0.07510900497436523,-0.13704681396484375
1715439487045498400,2.997498291015625,0.0037317276000976562,0.02826213836669922,-0.13140583038330078
1715439487055504600,3.007504638671875,-0.010972023010253906,-0.006314754486083984,-0.06316536664962769
1715439487065510700,3.0175107421875,-0.0995626449584961,0.05665898323059082,0.01326131820678711
1715439487075517000,3.027516845703125,-0.19989871978759766,0.07006978988647461,0.0005811452865600586
1715439487085523200,3.037523193359375,-0.34030818939208984,0.08330464363098145,-0.011033058166503906
1715439487095529200,3.047529296875,-0.4590749740600586,0.022678613662719727,-0.140916109085083
1715439487105535500,3.057535400390625,-0.5095767974853516,-0.05253005027770996,-0.24276983737945557
1715439487115541800,3.067541748046875,-0.5213708877563477,-0.05163931846618652,-0.25116193294525146
1715439487125548000,3.077548095703125,-0.4437990188598633,-0.03168368339538574,-0.26892781257629395
1715439487135554300,3.08755419921875,-0.2412424087524414,0.039359331130981445,-0.164811372756958
1715439487145560600,3.097560546875,-0.0854635238647461,0.09795999526977539,-0.08926010131835938
1715439487155566800,3.10756689453125,0.005675315856933594,0.09208035469055176,-0.21248173713684082
1715439487165573000,3.117572998046875,-0.23480606079101562,-0.012568950653076172,-0.28163301944732666
1715439487175579400,3.127579345703125,0.06085205078125,0.10565590858459473,-0.42705368995666504
1715439487185585700,3.137585693359375,0.19694805145263672,-0.10256719589233398,-0.37789666652679443
1715439487195592000,3.147592041015625,0.3174009323120117,0.16161441802978516,0.0344853401184082
1715439487205598200,3.15759814453125,0.46785926818847656,0.12105143070220947,0.040616750717163086
1715439487215604200,3.167604248046875,0.40958213806152344,0.040778279304504395,0.16155242919921875
1715439487225610500,3.177610595703125,0.20938396453857422,-0.06453549861907959,0.09936833381652832
1715439487235616800,3.18761669921875,-0.026716232299804688,-0.06288707256317139,-0.11652922630310059
1715439487245623000,3.197623046875,-0.13129425048828125,0.1008685827255249,-0.35471224784851074
1715439487255629300,3.20762939453125,-0.20838642120361328,0.29890871047973633,-0.4867675304412842
1715439487265635600,3.217635498046875,-0.14734554290771484,0.22510159015655518,-0.5572552680969238
1715439487275641900,3.227641845703125,-0.057824134826660156,-0.06049144268035889,-0.6168880462646484
1715439487285648100,3.237648193359375,0.01799488067626953,-0.31673920154571533,-0.6027371883392334
1715439487295654400,3.247654296875,-0.04391288757324219,-0.37896084785461426,-0.4786839485168457
1715439487305660700,3.25766064453125,-0.06255817413330078,-0.13900232315063477,-0.049822330474853516
1715439487315667000,3.2676669921875,0.7068510055541992,-0.25645291805267334,-0.5605571269989014
1715439487325673000,3.2776728515625,0.9628477096557617,-0.4051508903503418,-0.7562074661254883
1715439487335679200,3.28767919921875,0.5405511856079102,-0.27388083934783936,-0.39657092094421387
1715439487345685500,3.297685546875,0.24870872497558594,-0.45202040672302246,-0.4638969898223877
1715439487355691800,3.30769189453125,-0.3153800964355469,-0.30826854705810547,-0.24564337730407715
1715439487365698000,3.317697998046875,-0.7331857681274414,0.22610032558441162,0.38849782943725586
1715439487375704300,3.327704345703125,-0.6037673950195312,0.538949728012085,0.7102398872375488
1715439487385710600,3.337710693359375,-0.13800048828125,0.6586017608642578,0.7683820724487305
1715439487395716900,3.347716796875,0.3965435028076172,0.5124503374099731,0.4548768997192383
1715439487405723100,3.35772314453125,0.7452173233032227,0.28629887104034424,0.054659366607666016
1715439487415729400,3.3677294921875,0.7573604583740234,0.11869299411773682,-0.02030181884765625
1715439487425735700,3.377735595703125,0.4680633544921875,-0.056763648986816406,0.16502046585083008
1715439487435742000,3.387741943359375,0.2073354721069336,-0.1524972915649414,0.3324089050292969
1715439487445748000,3.397748046875,0.09364509582519531,-0.13867652416229248,0.2577958106994629
1715439487455754200,3.407754150390625,-0.07193374633789062,-0.11884856224060059,0.17667102813720703
1715439487465760500,3.417760498046875,-0.0940542221069336,-0.17220115661621094,0.06336307525634766
1715439487475766800,3.427766845703125,0.06229257583618164,-0.3245210647583008,-0.6023135185241699
1715439487485773000,3.43777294921875,0.12800884246826172,-0.27112817764282227,-1.1451644897460938
1715439487495779300,3.447779296875,0.06132030487060547,-0.14910316467285156,-1.173830509185791
1715439487505785600,3.45778564453125,-0.008513450622558594,0.0038033723831176758,-0.9263787269592285
1715439487515792000,3.4677919921875,0.0928502082824707,0.06169295310974121,-0.5939383506774902
1715439487525798100,3.477798095703125,0.10581016540527344,-0.14029967784881592,-0.11543893814086914
1715439487535804400,3.487804443359375,0.2327413558959961,-0.3077124357223511,0.0031871795654296875
1715439487545810700,3.497810791015625,0.2918519973754883,-0.20835185050964355,0.013300418853759766
1715439487555817000,3.50781689453125,0.337954044342041,0.002560138702392578,0.15811967849731445
1715439487565823000,3.517822998046875,0.4134197235107422,0.03946399688720703,0.36306333541870117
1715439487575829200,3.527829345703125,0.5372123718261719,-0.00037229061126708984,0.35252857208251953
1715439487585835500,3.53783544921875,1.0474777221679688,0.24723172187805176,0.12056922912597656
1715439487595841800,3.547841796875,1.8878116607666016,0.6822599172592163,-0.5482635498046875
1715439487605848000,3.55784814453125,2.0618648529052734,0.5485550165176392,0.03321647644042969
1715439487615854300,3.567854248046875,1.7199711799621582,0.31143343448638916,1.0358562469482422
1715439487625860600,3.577860595703125,1.3678812980651855,0.029564261436462402,1.4685401916503906
1715439487635867000,3.587866943359375,1.4105710983276367,-0.17819654941558838,1.3755483627319336
1715439487645873200,3.597873046875,1.4268546104431152,-0.12374603748321533,1.106572151184082
1715439487655879400,3.60787939453125,1.7340269088745117,0.09611809253692627,1.1625375747680664
1715439487665885700,3.6178857421875,2.0440969467163086,0.4476034641265869,1.5101203918457031
1715439487675891700,3.6278916015625,0.9614367485046387,0.4880084991455078,-0.29157447814941406
1715439487685898000,3.63789794921875,-0.3454568386077881,0.8148897886276245,-1.204427719116211
1715439487695904300,3.647904296875,-1.6027377843856812,1.5089693069458008,-1.3725090026855469
1715439487705910300,3.65791015625,-2.3877155780792236,1.5237230062484741,-1.157912254333496
1715439487715916500,3.66791650390625,-2.309152603149414,0.6268813610076904,-0.9222793579101562
1715439487725922800,3.6779228515625,-1.3042030334472656,0.19684600830078125,-1.0473098754882812
1715439487735929000,3.68792919921875,-0.9632441997528076,0.12027311325073242,-0.2857685089111328
1715439487745935000,3.69793505859375,-0.6727069020271301,0.22712481021881104,-0.4342498779296875
1715439487755941400,3.70794140625,-0.6158288717269897,0.24998116493225098,-0.9535942077636719
1715439487765947600,3.71794775390625,0.16580545902252197,0.5361036062240601,-1.6368474960327148
1715439487775953700,3.72795361328125,0.3153454065322876,0.6246030330657959,-1.6131505966186523
1715439487785960000,3.7379599609375,0.4982391893863678,0.6000046730041504,-1.5996150970458984
1715439487795966200,3.74796630859375,0.6313985586166382,0.4693427085876465,-1.347203254699707
1715439487805972500,3.757972412109375,0.717014729976654,0.31929779052734375,-1.0565547943115234
1715439487815978500,3.767978515625,0.8548201322555542,0.15949732065200806,-0.5226593017578125
1715439487825984800,3.77798486328125,0.7710608839988708,0.0160977840423584,0.1957225799560547
1715439487835991000,3.787990966796875,0.4162057638168335,-0.1652074158191681,0.7673845291137695
1715439487845997000,3.7979970703125,0.18865841627120972,-0.3353174924850464,1.1437206268310547
1715439487856003300,3.80800341796875,0.33003658056259155,-0.4477175772190094,1.4627609252929688
1715439487866009600,3.818009521484375,0.5194412469863892,-0.41593632102012634,1.4661750793457031
1715439487876015600,3.828015625,0.6033616065979004,-0.34763050079345703,1.383676528930664
1715439487886022000,3.83802197265625,0.49090704321861267,-0.3992229700088501,1.3344755172729492
1715439487896028200,3.848028076171875,0.2688177824020386,-0.4207361936569214,1.0794620513916016
1715439487906034400,3.858034423828125,0.028966665267944336,-0.35181212425231934,0.7097930908203125
1715439487916040400,3.86804052734375,-0.13750463724136353,-0.23632243275642395,0.24474048614501953
1715439487926046700,3.878046630859375,-0.20394867658615112,-0.06054225564002991,-0.0908660888671875
1715439487936053000,3.888052978515625,-0.19516724348068237,0.09263762831687927,-0.3735466003417969
1715439487946059000,3.89805908203125,-0.19901299476623535,0.15887689590454102,-0.5507564544677734
1715439487956065300,3.908065185546875,-0.2365913987159729,0.17313003540039062,-0.5557632446289062
1715439487966071600,3.918071533203125,-0.2566028833389282,0.23120099306106567,-0.5034189224243164
1715439487976077800,3.928077880859375,-0.176052987575531,0.31867554783821106,-0.45109081268310547
1715439487986083800,3.938083740234375,-0.03472477197647095,0.387601375579834,-0.37978267669677734
1715439487996090000,3.948090087890625,0.14908304810523987,0.44161567091941833,-0.18912982940673828
1715439488006096400,3.958096435546875,0.3528820872306824,0.4650498032569885,0.025197982788085938
1715439488016102400,3.968102294921875,0.5089977979660034,0.39901190996170044,0.13898754119873047
1715439488026108700,3.978108642578125,0.6163688898086548,0.33883392810821533,0.17154788970947266
1715439488036115000,3.988114990234375,0.6592351794242859,0.31784942746162415,0.12777137756347656
1715439488046121200,3.998121337890625,0.6735730767250061,0.32589033246040344,0.11280345916748047
1715439488056127200,4.008127197265625,0.7189612984657288,0.34848347306251526,0.06431293487548828
1715439488066133500,4.018133544921875,0.7364723682403564,0.34213972091674805,0.06349563598632812
1715439488076139800,4.028139892578125,0.7200354337692261,0.2913348078727722,0.15795326232910156
1715439488086146000,4.03814599609375,0.6567221283912659,0.25705209374427795,0.20905685424804688
1715439488096152300,4.04815234375,0.6055929064750671,0.2387470006942749,0.24091339111328125
1715439488106158600,4.05815869140625,0.652508556842804,0.2846803069114685,0.1627960205078125
1715439488116164900,4.068164794921875,0.6303972005844116,0.281251460313797,0.16125106811523438
1715439488126171100,4.078171142578125,0.474825382232666,0.20930877327919006,0.22189617156982422
1715439488136177400,4.088177490234375,0.24089857935905457,0.1501021385192871,0.27305126190185547
1715439488146183700,4.09818359375,0.02771925926208496,0.1372615396976471,0.24300193786621094
1715439488156189700,4.108189697265625,-0.029277920722961426,0.14749756455421448,0.18908119201660156
1715439488166196000,4.118196044921875,-0.08342814445495605,0.14275750517845154,0.11612129211425781
1715439488176202200,4.1282021484375,-0.1947629153728485,0.12347647547721863,0.06248188018798828
1715439488186208500,4.13820849609375,-0.30501872301101685,0.08062145113945007,0.07112598419189453
1715439488196214800,4.14821484375,-0.3417215049266815,0.04780206084251404,0.15148258209228516
1715439488206221000,4.158220947265625,-0.3238390386104584,-0.03281572461128235,0.3081703186035156
1715439488216227300,4.168227294921875,-0.1846098005771637,-0.09564776718616486,0.44072914123535156
1715439488226233600,4.178233642578125,-0.015338271856307983,-0.08404752612113953,0.4536933898925781
1715439488236240000,4.188239990234375,0.06858259439468384,-0.07445003092288971,0.39508914947509766
1715439488246246100,4.19824609375,0.06374377012252808,-0.04202118515968323,0.23168087005615234
1715439488256252400,4.20825244140625,0.060687631368637085,-0.023383110761642456,0.07351970672607422
1715439488266258400,4.218258544921875,0.07218793034553528,-0.0033198297023773193,0.006472587585449219
1715439488276264700,4.2282646484375,0.04628628492355347,0.01369282603263855,-0.02221393585205078
1715439488286271000,4.23827099609375,0.02251535654067993,0.003958791494369507,0.06383037567138672
1715439488296277200,4.24827734375,-0.031223326921463013,-0.05303719639778137,0.2071056365966797
1715439488306283500,4.258283447265625,-0.0766725242137909,-0.10592734813690186,0.22122955322265625
1715439488316289800,4.268289794921875,-0.05706912279129028,-0.1057496964931488,0.15676593780517578
1715439488326296000,4.278296142578125,0.013965368270874023,-0.050260066986083984,0.11225605010986328
1715439488336302300,4.28830224609375,0.09659245610237122,0.012466222047805786,0.08260059356689453
1715439488346308600,4.29830859375,0.22432667016983032,0.08224844932556152,0.02050018310546875
1715439488356315000,4.30831494140625,0.36206626892089844,0.13068747520446777,-0.05002403259277344
1715439488366321200,4.318321044921875,0.4515376687049866,0.13014626502990723,-0.15716266632080078
1715439488376327400,4.328327392578125,0.43173569440841675,0.14286935329437256,-0.21087169647216797
1715439488386333400,4.33833349609375,0.3323114514350891,0.14034900069236755,-0.1837940216064453
1715439488396339700,4.348339599609375,0.10386854410171509,0.10381448268890381,-0.05837059020996094
1715439488406346000,4.358345947265625,-0.1533910036087036,0.10463306307792664,-0.01971435546875
1715439488416352300,4.368352294921875,-0.2837180495262146,0.1342933475971222,-0.08980464935302734
1715439488426358500,4.378358642578125,-0.24545729160308838,0.14254918694496155,-0.2668647766113281
1715439488436364800,4.38836474609375,-0.1030174195766449,0.17421725392341614,-0.4315052032470703
1715439488446371000,4.39837109375,0.12677696347236633,0.22077617049217224,-0.5086841583251953
1715439488456377300,4.40837744140625,0.3794208765029907,0.23457908630371094,-0.36336421966552734
1715439488466383600,4.418383544921875,0.4911883473396301,0.16112151741981506,0.07137489318847656
1715439488476390000,4.428389892578125,0.5152130722999573,0.12992751598358154,0.34821510314941406
1715439488486396200,4.438396240234375,0.5689355731010437,0.16169676184654236,0.4368276596069336
1715439488496402400,4.44840234375,0.5590570569038391,0.17467200756072998,0.4908905029296875
1715439488506408400,4.458408447265625,0.47636404633522034,0.18724694848060608,0.5627717971801758
1715439488516414700,4.468414794921875,0.3763670027256012,0.15666982531547546,0.5864009857177734
1715439488526421000,4.4784208984375,0.27638572454452515,0.13189610838890076,0.4261341094970703
1715439488536427300,4.48842724609375,0.20259222388267517,0.14330029487609863,0.2027750015258789
1715439488546433500,4.49843359375,0.1573895514011383,0.17890304327011108,-0.044971466064453125
1715439488556439800,4.508439697265625,0.15512880682945251,0.2123098075389862,-0.23674488067626953
1715439488566446000,4.518446044921875,0.21295824646949768,0.21157509088516235,-0.3264942169189453
1715439488576452400,4.528452392578125,0.26757076382637024,0.22919237613677979,-0.34422969818115234
1715439488586458600,4.538458740234375,0.35950127243995667,0.22640347480773926,-0.2723560333251953
1715439488596465000,4.54846484375,0.3498004376888275,0.17370319366455078,-0.11235809326171875
1715439488606471200,4.55847119140625,0.23491732776165009,0.12184971570968628,0.03548908233642578
1715439488616477200,4.568477294921875,0.15328750014305115,0.1029125452041626,0.1431865692138672
1715439488626483500,4.5784833984375,0.10444372892379761,0.08285754919052124,0.2538118362426758
1715439488636489700,4.58848974609375,0.08914819359779358,0.04254007339477539,0.2637948989868164
1715439488646496000,4.59849609375,0.08810445666313171,-0.0318332314491272,0.2642803192138672
1715439488656502300,4.608502197265625,0.05438932776451111,-0.07368096709251404,0.2130603790283203
1715439488666508500,4.618508544921875,0.049531400203704834,-0.06871578097343445,0.1062459945678711
1715439488676514800,4.628514892578125,0.11964169144630432,-0.03141587972640991,0.020059585571289062
1715439488686521000,4.63852099609375,0.20752468705177307,0.019906938076019287,-0.07883644104003906
1715439488696527400,4.64852734375,0.2668655812740326,0.029161274433135986,-0.13843059539794922
1715439488706533600,4.65853369140625,0.2649969756603241,-0.0027312040328979492,-0.14527225494384766
1715439488716540000,4.668539794921875,0.1980140507221222,-0.004773259162902832,-0.11436080932617188
1715439488726546200,4.678546142578125,0.09529468417167664,0.02679222822189331,-0.1169271469116211
1715439488736552200,4.68855224609375,0.05001950263977051,0.06772834062576294,-0.15717315673828125
1715439488746558500,4.698558349609375,0.12071877717971802,0.11779111623764038,-0.18744659423828125
1715439488756564700,4.708564697265625,0.21163681149482727,0.1439981460571289,-0.18436431884765625
1715439488766571000,4.718571044921875,0.3000587224960327,0.15608417987823486,-0.15314197540283203
1715439488776577300,4.728577392578125,0.3448130190372467,0.13987183570861816,-0.01885223388671875
1715439488786583600,4.73858349609375,0.29136770963668823,0.08549726009368896,0.08504295349121094
1715439488796589800,4.74858984375,0.18389087915420532,0.04515177011489868,0.08843803405761719
1715439488806596000,4.75859619140625,0.07421070337295532,0.023179352283477783,0.07774066925048828
1715439488816602400,4.768602294921875,-0.016072988510131836,0.019461631774902344,0.02956390380859375
1715439488826608400,4.7786083984375,-0.07841533422470093,0.05291813611984253,-0.05550861358642578
1715439488836614700,4.78861474609375,-0.08065426349639893,0.07665115594863892,-0.15337657928466797
1715439488846621000,4.798620849609375,-0.018956512212753296,0.10599011182785034,-0.22150421142578125
1715439488856627000,4.808626953125,0.11711272597312927,0.14638912677764893,-0.18031787872314453
1715439488866633200,4.81863330078125,0.2532263696193695,0.11736404895782471,-0.055092811584472656
1715439488876639500,4.828639404296875,0.2684310972690582,0.052640438079833984,0.020997047424316406
1715439488886645800,4.838645751953125,0.22601968050003052,0.017995178699493408,0.09119129180908203
1715439488896651800,4.84865185546875,0.15813931822776794,0.02621638774871826,0.13203907012939453
1715439488906658000,4.858657958984375,0.10613849759101868,0.04331248998641968,0.16283702850341797
1715439488916664300,4.868664306640625,0.07351458072662354,0.04025453329086304,0.24497032165527344
1715439488926670300,4.87867041015625,0.08828809857368469,0.03558903932571411,0.30228233337402344
1715439488936676600,4.888676513671875,0.21163606643676758,0.03365987539291382,0.30698490142822266
1715439488946683000,4.898682861328125,0.290535032749176,0.020340263843536377,0.35410404205322266
1715439488956689200,4.908689208984375,0.2508257329463959,0.004632830619812012,0.32997894287109375
1715439488966695200,4.918695068359375,0.1364177167415619,-0.00863415002822876,0.27815914154052734
1715439488976701400,4.928701416015625,-0.01096615195274353,-0.01451343297958374,0.23198890686035156
1715439488986707700,4.938707763671875,-0.162303626537323,0.0013570189476013184,0.2054920196533203
1715439488996713700,4.948713623046875,-0.24115750193595886,0.006420254707336426,0.1418313980102539
1715439489006720000,4.958719970703125,-0.2158861756324768,0.020409822463989258,0.055708885192871094
1715439489016726300,4.968726318359375,-0.14899900555610657,0.011059224605560303,-0.028998374938964844
1715439489026732300,4.978732177734375,-0.06375673413276672,0.026287376880645752,-0.1028900146484375
1715439489036738600,4.988738525390625,-0.007388889789581299,0.02825862169265747,-0.17557716369628906
1715439489046744800,4.998744873046875,0.06266725063323975,0.0555916428565979,-0.21418476104736328
1715439489056751000,5.008751220703125,0.13221099972724915,0.07493168115615845,-0.2192831039428711
1715439489066757000,5.018757080078125,0.18643558025360107,0.03494143486022949,-0.21973896026611328
1715439489076763400,5.028763427734375,0.20647796988487244,0.011547327041625977,-0.14498615264892578
1715439489086769700,5.038769775390625,0.2166362702846527,0.013156652450561523,-0.07626914978027344
1715439489096775700,5.048775634765625,0.1794881820678711,0.010265827178955078,-0.02754974365234375
1715439489106782000,5.058781982421875,0.1145021915435791,0.011823892593383789,-0.003170013427734375
1715439489116788200,5.068788330078125,0.050246208906173706,0.026737749576568604,0.002010345458984375
1715439489126794500,5.07879443359375,0.03407156467437744,0.05005902051925659,0.007161140441894531
1715439489136800500,5.088800537109375,0.08883672952651978,0.08646690845489502,-0.015972137451171875
1715439489146806800,5.098806884765625,0.18980473279953003,0.10314279794692993,-0.09519577026367188
1715439489156813000,5.10881298828125,0.20419842004776,0.08713400363922119,-0.08367919921875
1715439489166819300,5.1188193359375,0.18504345417022705,0.07132470607757568,0.0076847076416015625
1715439489176825600,5.12882568359375,0.20794609189033508,0.054898083209991455,0.003398895263671875
1715439489186832000,5.138831787109375,0.26129788160324097,0.024071931838989258,-0.029109954833984375
1715439489196838100,5.148838134765625,0.2415422797203064,0.021679699420928955,0.009517669677734375
1715439489206844200,5.15884423828125,0.16536608338356018,0.03265833854675293,0.05697822570800781
1715439489216850400,5.168850341796875,0.11411869525909424,0.03311401605606079,0.037812232971191406
1715439489226856700,5.178856689453125,0.05962204933166504,0.037850022315979004,0.0049076080322265625
1715439489236863000,5.188863037109375,0.016005247831344604,0.024050235748291016,-0.03215789794921875
1715439489246869200,5.198869140625,0.010814875364303589,-0.01719123125076294,-0.05922698974609375
1715439489256875500,5.20887548828125,0.029898256063461304,-0.033416748046875,-0.100006103515625
1715439489266881800,5.2188818359375,0.035616397857666016,-0.015305817127227783,-0.15427684783935547
1715439489276888000,5.22888818359375,0.0794808566570282,0.022960364818572998,-0.1559600830078125
1715439489286894300,5.238894287109375,0.19718453288078308,0.029192447662353516,-0.07302284240722656
1715439489296900600,5.248900634765625,0.2706817388534546,0.011941134929656982,0.022649765014648438
1715439489306907000,5.258906982421875,0.2873021364212036,-0.0009723305702209473,0.14036178588867188
1715439489316913200,5.2689130859375,0.25748902559280396,-0.01536715030670166,0.23746109008789062
1715439489326919200,5.278919189453125,0.19559702277183533,-0.041371047496795654,0.23429203033447266
1715439489336925400,5.288925537109375,0.1496327519416809,-0.04952520132064819,0.09007835388183594
1715439489346931700,5.298931640625,0.06656810641288757,0.03151065111160278,-0.07523822784423828
1715439489356938000,5.30893798828125,0.03663480281829834,0.11680805683135986,-0.16724395751953125
1715439489366944300,5.3189443359375,0.09236264228820801,0.15053224563598633,-0.27667236328125
1715439489376950500,5.328950439453125,0.10045325756072998,0.17226839065551758,-0.3703765869140625
1715439489386956800,5.338956787109375,0.033437132835388184,0.14515596628189087,-0.3968830108642578
1715439489396963000,5.348963134765625,-0.13643550872802734,0.0981982946395874,-0.38088417053222656
1715439489406969300,5.35896923828125,-0.2800721526145935,0.07883840799331665,-0.26186656951904297
1715439489416975600,5.3689755859375,-0.37809982895851135,0.062179505825042725,-0.12617206573486328
1715439489426982000,5.37898193359375,-0.3653147518634796,0.038105785846710205,-0.0022592544555664062
1715439489436988200,5.38898828125,-0.18089309334754944,-0.027089953422546387,0.13376522064208984
1715439489446994200,5.398994140625,-0.011760413646697998,-0.06323516368865967,0.1829071044921875
1715439489457000400,5.40900048828125,0.15157973766326904,-0.06655019521713257,0.2219867706298828
1715439489467006700,5.4190068359375,0.2985434830188751,-0.037792086601257324,0.20874881744384766
1715439489477013000,5.429012939453125,0.311838835477829,0.00820857286453247,0.19116783142089844
1715439489487019300,5.439019287109375,0.2540464699268341,0.023752868175506592,0.17871570587158203
1715439489497025500,5.449025634765625,0.15283212065696716,0.046798765659332275,0.13827037811279297
1715439489507031800,5.45903173828125,0.04138055443763733,0.053830504417419434,0.08908462524414062
1715439489517038000,5.4690380859375,-0.02842193841934204,0.06410527229309082,0.021864891052246094
1715439489527044400,5.47904443359375,-0.03424876928329468,0.05453211069107056,-0.07728767395019531
1715439489537050600,5.489050537109375,0.014645874500274658,0.054410576820373535,-0.1748790740966797
1715439489547057000,5.499056884765625,0.05298379063606262,0.060114920139312744,-0.22857666015625
1715439489557063000,5.50906298828125,0.06254196166992188,0.07156360149383545,-0.19671249389648438
1715439489567069200,5.519069091796875,0.09068140387535095,0.05058234930038452,-0.11835765838623047
1715439489577075500,5.529075439453125,0.09462139010429382,0.01573324203491211,-0.04131031036376953
1715439489587081700,5.539081787109375,0.07485085725784302,0.009102582931518555,-0.012586593627929688
1715439489597088000,5.549087890625,0.06554371118545532,0.021109819412231445,0.0015974044799804688
1715439489607094300,5.55909423828125,0.042650312185287476,0.028191685676574707,-0.03622627258300781
1715439489617100500,5.5691005859375,0.03492233157157898,0.03583246469497681,-0.0828561782836914
1715439489627106800,5.57910693359375,0.02298271656036377,0.04464691877365112,-0.11937427520751953
1715439489637113000,5.589113037109375,0.038949936628341675,0.04039222002029419,-0.10361576080322266
1715439489647119400,5.599119384765625,0.09140089154243469,0.04163175821304321,-0.03172111511230469
1715439489657125600,5.609125732421875,0.13227367401123047,0.023737728595733643,0.11897659301757812
1715439489667132000,5.6191318359375,0.12009906768798828,-0.009590327739715576,0.22017669677734375
1715439489677138000,5.629137939453125,0.11663222312927246,-0.006630420684814453,0.2632932662963867
1715439489687144200,5.639144287109375,0.12593132257461548,0.013080060482025146,0.23985576629638672
1715439489697150500,5.649150390625,0.15381422638893127,0.045263051986694336,0.24045276641845703
1715439489707156700,5.65915673828125,0.20083901286125183,0.05217546224594116,0.2741355895996094
1715439489717163000,5.6691630859375,0.19247779250144958,0.029425501823425293,0.23212337493896484
1715439489727169300,5.679169189453125,0.17704933881759644,0.04424703121185303,0.12033462524414062
1715439489737175600,5.689175537109375,0.13964012265205383,0.06367993354797363,0.019884109497070312
1715439489747181800,5.699181884765625,0.07528457045555115,0.08846378326416016,-0.11660194396972656
1715439489757188000,5.70918798828125,0.011890590190887451,0.09123581647872925,-0.19917774200439453
1715439489767194400,5.7191943359375,0.014729857444763184,0.09599679708480835,-0.18169879913330078
1715439489777200600,5.72920068359375,0.007369577884674072,0.07395333051681519,-0.0752096176147461
1715439489787207000,5.73920703125,0.00019276142120361328,0.05736851692199707,0.04360485076904297
1715439489797213000,5.749212890625,0.012654542922973633,0.05946314334869385,0.0851736068725586
1715439489807219200,5.75921923828125,0.0015464425086975098,0.02793174982070923,0.05548286437988281
1715439489817225500,5.7692255859375,-0.01474076509475708,-0.003204047679901123,0.03097248077392578
1715439489827231700,5.779231689453125,-0.02723240852355957,-0.0623164176940918,0.10570621490478516
1715439489837238000,5.789238037109375,0.007009267807006836,-0.09744656085968018,0.1980419158935547
1715439489847244300,5.799244384765625,0.0412236750125885,-0.11873584985733032,0.2324352264404297
1715439489857250600,5.80925048828125,0.06611371040344238,-0.11217629909515381,0.23338985443115234
1715439489867256800,5.8192568359375,0.1285267472267151,-0.07842683792114258,0.23912906646728516
1715439489877263000,5.82926318359375,0.1984255313873291,-0.05156928300857544,0.2495594024658203
1715439489887269400,5.839269287109375,0.21541300415992737,-0.012849569320678711,0.18462371826171875
1715439489897275600,5.849275634765625,0.17526718974113464,0.037853121757507324,0.04553413391113281
1715439489907281700,5.85928173828125,0.13462167978286743,0.09655600786209106,-0.1053762435913086
1715439489917288000,5.869287841796875,0.08906081318855286,0.14520102739334106,-0.2067546844482422
1715439489927294200,5.879294189453125,0.03404542803764343,0.13747549057006836,-0.21238422393798828
1715439489937300500,5.889300537109375,-0.0024586915969848633,0.10213714838027954,-0.17093849182128906
1715439489947306800,5.899306640625,-0.00953763723373413,0.11987006664276123,-0.18671035766601562
1715439489957313000,5.90931298828125,0.022845715284347534,0.1245761513710022,-0.2399120330810547
1715439489967319300,5.9193193359375,0.07552233338356018,0.1314285397529602,-0.27347469329833984
1715439489977325600,5.92932568359375,0.1337883174419403,0.09815758466720581,-0.2877492904663086
1715439489987331800,5.939331787109375,0.17822867631912231,0.06301230192184448,-0.2595329284667969
1715439489997338000,5.949338134765625,0.16139861941337585,0.04896688461303711,-0.16126155853271484
1715439490007344400,5.959344482421875,0.12063992023468018,0.026076674461364746,-0.041144371032714844
1715439490017350700,5.9693505859375,0.08362266421318054,-0.010973215103149414,0.09104728698730469
1715439490027356700,5.979356689453125,0.13544094562530518,-0.006676375865936279,0.249359130859375
1715439490037363000,5.989363037109375,0.1896439790725708,-0.06197619438171387,0.32515716552734375
1715439490047369200,5.999369140625,0.19533488154411316,-0.05334615707397461,0.25864505767822266
1715439490057375500,6.00937548828125,0.1493918001651764,-0.032651305198669434,0.11807537078857422
1715439490067381800,6.0193818359375,0.09931832551956177,0.010738193988800049,-0.062496185302734375
1715439490077388000,6.029387939453125,0.12040162086486816,0.02628105878829956,-0.19307899475097656
1715439490087394300,6.039394287109375,0.1415615975856781,0.024689316749572754,-0.2321624755859375
1715439490097400600,6.049400634765625,0.14058521389961243,0.04401838779449463,-0.2141714096069336
1715439490107406800,6.05940673828125,0.10893464088439941,0.0414387583732605,-0.19652462005615234
1715439490117413000,6.0694130859375,0.031764477491378784,0.021614253520965576,-0.1321582794189453
1715439490127419400,6.07941943359375,-0.02542346715927124,0.031067252159118652,-0.04538249969482422
1715439490137425400,6.08942529296875,-0.04924494028091431,0.06347548961639404,0.002288818359375
1715439490147431700,6.099431640625,-0.07905834913253784,0.05682969093322754,0.025605201721191406
1715439490157438000,6.10943798828125,-0.09113454818725586,0.03541457653045654,0.048511505126953125
1715439490167444200,6.1194443359375,0.008231163024902344,-0.005006015300750732,0.061568260192871094
1715439490177450500,6.129450439453125,0.12279301881790161,-0.04491370916366577,0.11669158935546875
1715439490187456500,6.13945654296875,0.10345637798309326,-0.02833235263824463,0.18977928161621094
1715439490197462800,6.149462890625,0.028322428464889526,-0.0035490989685058594,0.19582748413085938
1715439490207469000,6.159468994140625,-0.04082322120666504,-0.003385186195373535,0.1453256607055664
1715439490217475300,6.169475341796875,-0.08848196268081665,0.011221170425415039,0.05804920196533203
1715439490227481300,6.1794814453125,-0.03886955976486206,-0.006554663181304932,0.061745643615722656
1715439490237487600,6.189487548828125,0.04375874996185303,-0.03777718544006348,0.060688018798828125
1715439490247494000,6.199493896484375,0.09296563267707825,0.002451598644256592,0.05967235565185547
1715439490257500000,6.2095,0.1369524896144867,0.07455939054489136,0.00222015380859375
1715439490267506200,6.219506103515625,0.12723779678344727,0.12636107206344604,-0.04489707946777344
1715439490277512400,6.229512451171875,0.1023525595664978,0.1256236433982849,-0.07717609405517578
1715439490287518700,6.239518798828125,0.1512010395526886,0.09185749292373657,0.013405799865722656
1715439490297524700,6.249524658203125,0.230574369430542,0.052898287773132324,0.11189556121826172
1715439490307531000,6.259531005859375,0.20485010743141174,0.00811237096786499,0.21358585357666016
1715439490317537300,6.269537353515625,0.09046396613121033,0.004130423069000244,0.2054901123046875
1715439490327543300,6.279543212890625,0.00519290566444397,0.03592085838317871,0.08463191986083984
1715439490337549600,6.289549560546875,-0.028126835823059082,0.04300057888031006,-0.05305004119873047
1715439490347555800,6.299555908203125,-0.04795181751251221,0.036109328269958496,-0.11788272857666016
1715439490357562000,6.30956201171875,-0.06330841779708862,0.016096949577331543,-0.1440591812133789
1715439490367568100,6.319568115234375,-0.035277485847473145,0.05421704053878784,-0.14632129669189453
1715439490377574400,6.329574462890625,0.0027984976768493652,0.06497091054916382,-0.12507343292236328
1715439490387580700,6.33958056640625,0.037352025508880615,0.04881864786148071,-0.10421943664550781
1715439490397586700,6.349586669921875,0.10134187340736389,0.024964094161987305,-0.07433414459228516
1715439490407593000,6.359593017578125,0.11467543244361877,0.0023560523986816406,-0.021371841430664062
1715439490417599200,6.36959912109375,0.08194825053215027,-0.024164319038391113,-0.030481338500976562
1715439490427605500,6.37960546875,0.035546839237213135,-0.012159109115600586,-0.04889488220214844
1715439490437611500,6.389611572265625,0.0036089420318603516,0.009356141090393066,-0.02466869354248047
1715439490447617800,6.39961767578125,0.047788918018341064,0.04491221904754639,0.06506538391113281
1715439490457624000,6.4096240234375,0.11989471316337585,0.01825416088104248,0.09214496612548828
1715439490467630000,6.419630126953125,0.14929312467575073,-0.04150581359863281,0.05294322967529297
1715439490477636400,6.42963623046875,0.15499207377433777,-0.04866570234298706,0.07093048095703125
1715439490487642600,6.439642578125,0.15146881341934204,-0.02822655439376831,0.13578128814697266
1715439490497649000,6.44964892578125,0.058711737394332886,-0.028564453125,0.1431884765625
1715439490507655200,6.4596552734375,-0.07531151175498962,0.0025099515914916992,0.056407928466796875
1715439490517661400,6.469661376953125,-0.09600034356117249,0.04183381795883179,-0.04779529571533203
1715439490527667700,6.479667724609375,-0.033957868814468384,0.03361696004867554,-0.1174306869506836
1715439490537674000,6.489674072265625,-0.03088819980621338,0.011822104454040527,-0.1436309814453125
1715439490547680300,6.49968017578125,-0.0760233998298645,0.028650522232055664,-0.15536880493164062
1715439490557686500,6.5096865234375,-0.10676705837249756,0.07914036512374878,-0.15289020538330078
1715439490567692500,6.519692626953125,-0.08499026298522949,0.06875365972518921,-0.1128702163696289
1715439490577698800,6.52969873046875,-0.0020825564861297607,-0.0016611218452453613,-0.05004596710205078
1715439490587705000,6.539705078125,0.13628041744232178,-0.02769005298614502,-0.025989532470703125
1715439490597711400,6.54971142578125,0.21763673424720764,-0.005447447299957275,0.02593994140625
1715439490607717600,6.559717529296875,0.23424473404884338,-0.011276006698608398,0.10532760620117188
1715439490617724000,6.569723876953125,0.1871415376663208,-0.04503899812698364,0.1976156234741211
1715439490627730200,6.579730224609375,0.1283227801322937,-0.11653155088424683,0.2649507522583008
1715439490637736400,6.589736328125,0.06654053926467896,-0.14152276515960693,0.2795543670654297
1715439490647742700,6.59974267578125,0.029020488262176514,-0.04527628421783447,0.20927906036376953
1715439490657749000,6.6097490234375,0.07495102286338806,0.05248469114303589,0.13079833984375
1715439490667755300,6.61975537109375,0.17417126893997192,0.10962164402008057,0.044200897216796875
1715439490677761500,6.629761474609375,0.24626609683036804,0.07989329099655151,-0.036238670349121094
1715439490687767600,6.639767578125,0.2064639925956726,0.06365203857421875,-0.07297611236572266
1715439490697773800,6.64977392578125,0.10846191644668579,0.10823231935501099,-0.13739967346191406
1715439490707780000,6.659780029296875,0.048148274421691895,0.16170668601989746,-0.19612407684326172
1715439490717786400,6.669786376953125,0.025674104690551758,0.15870177745819092,-0.24455738067626953
1715439490727792600,6.679792724609375,0.04170709848403931,0.12000095844268799,-0.24523258209228516
1715439490737799000,6.689798828125,0.12020766735076904,0.107632577419281,-0.23188495635986328
1715439490747805200,6.69980517578125,0.14780381321907043,0.07410085201263428,-0.19530773162841797
1715439490757811500,6.7098115234375,0.10680598020553589,0.052405357360839844,-0.1264352798461914
1715439490767817700,6.719817626953125,0.0497051477432251,0.042024075984954834,-0.07759284973144531
1715439490777824000,6.729823974609375,0.008669853210449219,0.02360999584197998,0.008044242858886719
1715439490787830300,6.739830322265625,0.020469695329666138,-0.022261977195739746,0.11577415466308594
1715439490797836500,6.74983642578125,0.051188915967941284,-0.04916107654571533,0.24061298370361328
1715439490807842600,6.759842529296875,0.05306050181388855,-0.0631144642829895,0.34467411041259766
1715439490817848800,6.769848876953125,0.035888731479644775,-0.07477718591690063,0.36246299743652344
1715439490827855000,6.779855224609375,0.018380433320999146,-0.06516861915588379,0.3283414840698242
1715439490837861400,6.789861328125,0.052651554346084595,-0.03883683681488037,0.2384347915649414
1715439490847867600,6.79986767578125,0.03989109396934509,-0.03740799427032471,0.10304546356201172
1715439490857874000,6.8098740234375,0.014356464147567749,-0.0357934832572937,-0.05830574035644531
1715439490867880200,6.819880126953125,-0.05253139138221741,-0.009643971920013428,-0.15110492706298828
1715439490877886500,6.829886474609375,-0.10883775353431702,0.01737821102142334,-0.19537734985351562
1715439490887892700,6.839892822265625,-0.1315305531024933,0.05916392803192139,-0.1730937957763672
1715439490897899000,6.84989892578125,-0.09792602062225342,0.08220177888870239,-0.13243675231933594
1715439490907905300,6.8599052734375,-0.042570412158966064,0.06739115715026855,-0.10194778442382812
1715439490917911300,6.869911376953125,-0.032223790884017944,0.024594128131866455,-0.07675552368164062
1715439490927917600,6.87991748046875,-0.06125655770301819,0.029186129570007324,-0.009641647338867188
1715439490937923800,6.889923828125,-0.10030046105384827,0.03786933422088623,0.08460140228271484
1715439490947930000,6.89993017578125,-0.058931946754455566,0.012585222721099854,0.12554073333740234
1715439490957936400,6.909936279296875,0.00574946403503418,-0.012613058090209961,0.10463523864746094
1715439490967942700,6.919942626953125,0.042390376329422,-0.02809971570968628,0.09827423095703125
1715439490977949000,6.929948974609375,0.051364749670028687,-0.043244004249572754,0.07794189453125
1715439490987955200,6.939955078125,0.0610690712928772,-0.006056785583496094,0.04854583740234375
1715439490997961500,6.94996142578125,0.10355377197265625,0.02599787712097168,0.014913558959960938
1715439491007967700,6.9599677734375,0.13060572743415833,0.05292212963104248,0.010056495666503906
1715439491017974000,6.96997412109375,0.1566164791584015,0.06027019023895264,0.03353118896484375
1715439491027980300,6.979980224609375,0.1909443736076355,0.06711411476135254,0.009531974792480469
1715439491037986300,6.989986328125,0.23346877098083496,0.06415700912475586,-0.0281982421875
1715439491047992600,6.99999267578125,0.24723263084888458,0.08494621515274048,-0.032341957092285156
1715439491057998800,7.009998779296875,0.21920597553253174,0.058352887630462646,-0.036383628845214844
1715439491068005000,7.020005126953125,0.11275580525398254,0.03713041543960571,-0.07799720764160156
1715439491078011400,7.030011474609375,0.013265162706375122,0.0448036789894104,-0.0812530517578125
1715439491088017700,7.040017578125,-0.024043649435043335,0.05262172222137451,-0.05154705047607422
1715439491098024000,7.05002392578125,0.023848772048950195,0.06037670373916626,-0.06001853942871094
1715439491108030200,7.0600302734375,0.06560936570167542,0.044660329818725586,-0.058976173400878906
1715439491118036500,7.070036376953125,0.13845747709274292,0.015414774417877197,-0.08628273010253906
1715439491128042800,7.080042724609375,0.18594864010810852,0.029398977756500244,-0.05668830871582031
1715439491138049000,7.090049072265625,0.12886056303977966,0.019761621952056885,0.010061264038085938
1715439491148055300,7.10005517578125,0.034681230783462524,0.0004743337631225586,0.07101058959960938
1715439491158061300,7.110061279296875,-0.029704421758651733,-0.005301475524902344,0.13573551177978516
1715439491168067600,7.120067626953125,-0.04591086506843567,-0.016855895519256592,0.14298343658447266
1715439491178073900,7.130073974609375,-0.02404695749282837,-0.019860267639160156,0.08899879455566406
1715439491188080000,7.140080078125,0.016520768404006958,0.0002847909927368164,0.040673255920410156
1715439491198086400,7.15008642578125,0.05690610408782959,0.02039402723312378,-0.049228668212890625
1715439491208092700,7.1600927734375,0.10183936357498169,0.01765209436416626,-0.11415958404541016
1715439491218099000,7.170098876953125,0.12282523512840271,0.025724053382873535,-0.14044857025146484
1715439491228105200,7.180105224609375,0.13892006874084473,0.03492128849029541,-0.12402820587158203
1715439491238111500,7.190111572265625,0.1121266782283783,0.03519159555435181,-0.046736717224121094
1715439491248117800,7.20011767578125,0.08610603213310242,0.044985175132751465,-0.0036907196044921875
1715439491258124000,7.2101240234375,0.11704075336456299,0.05441856384277344,0.02923870086669922
1715439491268130000,7.220130126953125,0.1848950982093811,0.058607280254364014,0.0051422119140625
1715439491278136300,7.23013623046875,0.1583596169948578,0.07658296823501587,-0.004367828369140625
1715439491288142600,7.240142578125,0.06692394614219666,0.06091541051864624,-0.023080825805664062
1715439491298148900,7.25014892578125,-0.01858648657798767,0.040697693824768066,-0.055609703063964844
1715439491308155100,7.260155029296875,-0.08963608741760254,0.030412256717681885,-0.08765220642089844
1715439491318161400,7.270161376953125,-0.12296938896179199,0.03959900140762329,-0.07216167449951172
1715439491328167700,7.280167724609375,-0.09055334329605103,0.025350868701934814,-0.03343677520751953
1715439491338174000,7.290174072265625,-0.03018355369567871,0.016124427318572998,0.0046443939208984375
1715439491348180200,7.30018017578125,0.02509579062461853,0.0024496912956237793,-0.0049800872802734375
1715439491358186500,7.3101865234375,0.018885016441345215,0.0032428503036499023,-0.056807518005371094
1715439491368192800,7.32019287109375,-0.024378418922424316,-0.00007086992263793945,-0.11251640319824219
1715439491378199000,7.330198974609375,-0.10512009263038635,-0.03527259826660156,-0.10619640350341797
1715439491388205000,7.340205078125,-0.17593547701835632,-0.07863736152648926,-0.020025253295898438
1715439491398211300,7.35021142578125,-0.17544066905975342,-0.08358818292617798,0.06468963623046875
1715439491408217600,7.360217529296875,-0.0670149028301239,-0.07500988245010376,0.2280874252319336
1715439491418223900,7.370223876953125,0.05899950861930847,-0.10621166229248047,0.33716487884521484
1715439491428230100,7.380230224609375,0.18906733393669128,-0.08745193481445312,0.25634288787841797
1715439491438236400,7.390236328125,0.2565731704235077,-0.01870673894882202,0.08756732940673828
1715439491448242700,7.40024267578125,0.24356532096862793,0.062771737575531,-0.059513092041015625
1715439491458249000,7.4102490234375,0.1988641768693924,0.1295374631881714,-0.17592144012451172
1715439491468255200,7.420255126953125,0.11803853511810303,0.14496874809265137,-0.3140449523925781
1715439491478261500,7.430261474609375,0.08088839054107666,0.1246492862701416,-0.3653097152709961
1715439491488267800,7.440267822265625,0.02440360188484192,0.11624032258987427,-0.29823970794677734
1715439491498273800,7.450273681640625,0.001289457082748413,0.08564865589141846,-0.17591285705566406
1715439491508280000,7.460280029296875,0.015364378690719604,0.07008248567581177,-0.046273231506347656
1715439491518286300,7.470286376953125,0.09428837895393372,0.0639808177947998,0.029401779174804688
1715439491528292600,7.480292724609375,0.1525787115097046,0.057480812072753906,0.09442901611328125
1715439491538299000,7.490298828125,0.16767752170562744,0.03626960515975952,0.13960647583007812
1715439491548305200,7.50030517578125,0.16423878073692322,0.02423006296157837,0.16998004913330078
1715439491558311400,7.5103115234375,0.13744401931762695,-0.007251381874084473,0.1905059814453125
1715439491568317700,7.520317626953125,0.11998233199119568,-0.01559382677078247,0.20604515075683594
1715439491578324000,7.530323974609375,0.15938997268676758,0.008230328559875488,0.1931591033935547
1715439491588330200,7.540330322265625,0.2503814995288849,0.0451817512512207,0.13817882537841797
1715439491598336500,7.55033642578125,0.2989124357700348,0.06722348928451538,0.09830284118652344
1715439491608342500,7.560342529296875,0.26845112442970276,0.05608344078063965,0.012054443359375
1715439491618348800,7.570348876953125,0.17859014868736267,0.05037713050842285,-0.11514091491699219
1715439491628355000,7.58035498046875,0.06167593598365784,0.05521267652511597,-0.13201904296875
1715439491638361000,7.590361083984375,-0.030912339687347412,0.055758893489837646,-0.11102867126464844
1715439491648367400,7.600367431640625,-0.07117730379104614,0.056159913539886475,-0.08570098876953125
1715439491658373600,7.61037353515625,-0.06487700343132019,0.06062394380569458,-0.07490348815917969
1715439491668380000,7.6203798828125,-0.04528269171714783,0.05958390235900879,-0.14429187774658203
1715439491678386000,7.630385986328125,-0.0319078266620636,0.06328690052032471,-0.2408161163330078
1715439491688392200,7.64039208984375,-0.04784679412841797,0.10032868385314941,-0.2698783874511719
1715439491698398500,7.6503984375,-0.07409194111824036,0.10955208539962769,-0.3268394470214844
1715439491708404500,7.660404541015625,-0.13884246349334717,0.09192413091659546,-0.3171100616455078
1715439491718410800,7.67041064453125,-0.22290828824043274,0.04765588045120239,-0.18057632446289062
1715439491728417000,7.6804169921875,-0.27823886275291443,0.00910264253616333,0.005427360534667969
1715439491738423300,7.69042333984375,-0.28632068634033203,-0.043497443199157715,0.12714767456054688
1715439491748429300,7.70042919921875,-0.23825335502624512,-0.044615209102630615,0.19984722137451172
1715439491758435600,7.710435546875,-0.14443856477737427,-0.056606829166412354,0.23378467559814453
1715439491768441900,7.72044189453125,-0.03341880440711975,-0.00874173641204834,0.2296276092529297
1715439491778448000,7.73044775390625,0.09109297394752502,0.03719884157180786,0.19742965698242188
1715439491788454100,7.7404541015625,0.22436493635177612,0.06746029853820801,0.15646743774414062
1715439491798460400,7.75046044921875,0.333596408367157,0.07342833280563354,0.10684680938720703
1715439491808466700,7.760466796875,0.3912827670574188,0.06534188985824585,0.06280803680419922
1715439491818472700,7.77047265625,0.3555251955986023,0.06718689203262329,0.02893352508544922
1715439491828479000,7.78047900390625,0.2225979119539261,0.0413128137588501,0.014434814453125
1715439491838485200,7.7904853515625,0.049872130155563354,0.035127341747283936,0.009568214416503906
1715439491848491300,7.8004912109375,-0.07847175002098083,0.043872833251953125,0.0046977996826171875
1715439491858497500,7.81049755859375,-0.11719553172588348,0.025003790855407715,0.061003684997558594
1715439491868503800,7.82050390625,-0.05834926664829254,-0.050084710121154785,0.17282772064208984
1715439491878510000,7.830510009765625,-0.011421144008636475,-0.09190857410430908,0.2498788833618164
1715439491888516000,7.84051611328125,0.0908990353345871,-0.03068476915359497,0.2504138946533203
1715439491898522400,7.8505224609375,0.1785607933998108,0.042729079723358154,0.2840118408203125
1715439491908528600,7.860528564453125,0.2335444688796997,0.057409822940826416,0.2700967788696289
1715439491918535000,7.870534912109375,0.2525297701358795,0.014647364616394043,0.17177963256835938
1715439491928541200,7.880541259765625,0.1840825378894806,0.02440798282623291,0.046898841857910156
1715439491938547200,7.890547119140625,0.09508643299341202,0.058679282665252686,-0.07596206665039062
1715439491948553500,7.900553466796875,0.03699509799480438,0.07517683506011963,-0.15922832489013672
1715439491958559700,7.910559814453125,0.01726032793521881,0.05085700750350952,-0.15181446075439453
1715439491968566000,7.92056591796875,0.011259973049163818,0.03265559673309326,-0.13050365447998047
1715439491978572300,7.930572265625,0.02234409749507904,0.029680848121643066,-0.09082508087158203
1715439491988578600,7.94057861328125,0.07759344577789307,0.0032992959022521973,-0.042458534240722656
1715439491998584800,7.950584716796875,0.1577834039926529,0.005190551280975342,-0.013747215270996094
1715439492008591000,7.960591064453125,0.25376230478286743,0.020567238330841064,0.005091667175292969
1715439492018597400,7.970597412109375,0.3417046070098877,0.020764529705047607,-0.04226207733154297
1715439492028603600,7.980603759765625,0.4134288430213928,0.044126152992248535,-0.13117218017578125
1715439492038610000,7.99060986328125,0.43431952595710754,0.07235133647918701,-0.15268230438232422
