time,seconds_elapsed,z,y,x
1717513007577375000,0.125375,-0.012776374816894531,-0.016542822122573853,0.008040770888328552
1717513007587385300,0.13538525390625,-0.011506080627441406,-0.010090246796607971,-0.0018616802990436554
1717513007597396500,0.145396484375,-0.014820098876953125,-0.013032399117946625,-0.0020808614790439606
1717513007607408000,0.155408203125,-0.013592720031738281,-0.007058873772621155,0.006384439766407013
1717513007617420300,0.165420166015625,-0.012556076049804688,-0.005917266011238098,0.0009830966591835022
1717513007627432400,0.175432373046875,-0.007222175598144531,-0.009241625666618347,0.000418834388256073
1717513007637442600,0.185442626953125,-0.0067501068115234375,-0.007922738790512085,0.00426565483212471
1717513007647449000,0.195448974609375,-0.006337165832519531,-0.0023312196135520935,-0.001185338944196701
1717513007657455600,0.20545556640625,-0.00597381591796875,-0.00599236786365509,-0.0017146803438663483
1717513007667462000,0.2154619140625,-0.0056514739990234375,-0.004948921501636505,-0.002221517264842987
1717513007677468400,0.225468505859375,-0.0008268356323242188,-0.003975704312324524,0.0018279105424880981
1717513007687475000,0.235474853515625,-0.005344390869140625,0.0015865936875343323,-0.00341796875
1717513007697481500,0.2454814453125,-0.005099296569824219,-0.0023327767848968506,-0.008422549813985825
1717513007707488000,0.255488037109375,-0.0048770904541015625,-0.0015082135796546936,-0.0042767152190208435
1717513007717494500,0.26549462890625,-0.009256362915039062,-0.0006221532821655273,-0.009379912167787552
1717513007727501000,0.2755009765625,-0.008881568908691406,0.00950419157743454,-0.0005215033888816833
1717513007737507600,0.285507568359375,0.0006561279296875,0.00994747132062912,-0.0059096962213516235
1717513007747514000,0.29551416015625,0.00061798095703125,0.005987033247947693,-0.006496831774711609
1717513007757520600,0.305520751953125,-0.004027366638183594,0.0020813867449760437,-0.0022575650364160538
1717513007767527200,0.315527099609375,0.0007219314575195312,0.007654137909412384,-0.002891385927796364
1717513007777533700,0.32553369140625,0.0006847381591796875,0.0037976428866386414,-0.003507956862449646
1717513007787540200,0.335540283203125,-0.008607864379882812,0.004703357815742493,-0.008735958486795425
1717513007797546800,0.345546630859375,-0.0037078857421875,0.0009511485695838928,-0.013906572014093399
1717513007807553000,0.355552978515625,-0.0036029815673828125,0.006594710052013397,-0.009550787508487701
1717513007817559600,0.3655595703125,-0.003505706787109375,0.0027871206402778625,-0.0007947962731122971
1717513007827566000,0.375566162109375,0.005879402160644531,0.008491143584251404,-0.010989189147949219
1717513007837572600,0.385572509765625,-0.0082550048828125,0.009387999773025513,-0.01604621857404709
1717513007847579100,0.3955791015625,-0.008037567138671875,0.01492299884557724,-0.01176711916923523
1717513007857585700,0.405585693359375,-0.0031747817993164062,0.011104099452495575,-0.007612697780132294
1717513007867592200,0.41559228515625,0.0015592575073242188,0.016616396605968475,-0.008235512301325798
1717513007877598700,0.4255986328125,-0.0031585693359375,0.017333276569843292,-0.008848035708069801
1717513007887605200,0.435605224609375,-0.0077610015869140625,0.022814728319644928,-0.01422208733856678
1717513007897611800,0.44561181640625,0.0017595291137695312,0.01883375644683838,-0.014596592634916306
1717513007907618300,0.455618408203125,0.006381034851074219,0.010181695222854614,-0.015074172988533974
1717513007917624800,0.465624755859375,-0.0078105926513671875,0.015870340168476105,-0.01554916612803936
1717513007927631400,0.47563134765625,-0.0076446533203125,0.021335691213607788,-0.016021721065044403
1717513007937638000,0.485637939453125,-0.0074863433837890625,0.02200862020254135,-0.016389356926083565
1717513007947644400,0.49564453125,-0.0026493072509765625,0.02736232429742813,-0.016756245866417885
1717513007957650700,0.505650634765625,-0.0026035308837890625,0.0232418030500412,-0.017124030739068985
1717513007967657200,0.5156572265625,0.00212860107421875,0.019217655062675476,-0.012906020507216454
1717513007977663700,0.525663818359375,0.0020742416381835938,0.020077534019947052,-0.018058190122246742
1717513007987670300,0.535670166015625,0.00202178955078125,0.0303138867020607,-0.023217683658003807
1717513007997676800,0.5456767578125,0.0019712448120117188,0.026278123259544373,-0.018793324008584023
1717513008007683300,0.555683349609375,0.0019216537475585938,0.017633795738220215,-0.01446123979985714
1717513008017689900,0.56568994140625,0.0018749237060546875,0.02325328439474106,-0.019612321630120277
1717513008027696400,0.5756962890625,-0.007569313049316406,0.02407728135585785,-0.01997523009777069
1717513008037703000,0.585702880859375,0.00196075439453125,0.02009015530347824,-0.011038735508918762
1717513008047709400,0.59570947265625,-0.0027875900268554688,0.02568979561328888,-0.02567680925130844
1717513008057716000,0.605716064453125,0.006659507751464844,0.03119940310716629,-0.016647381708025932
1717513008067722500,0.615722412109375,0.0018291473388671875,0.027108967304229736,-0.017189715057611465
1717513008077729000,0.62572900390625,0.0017881393432617188,0.03261348605155945,-0.02233268879354
1717513008087735600,0.635735595703125,-0.002960205078125,0.03332705795764923,-0.018082372844219208
1717513008097741800,0.645741943359375,0.006497383117675781,0.029216915369033813,-0.023423297330737114
1717513008107748400,0.655748291015625,0.006379127502441406,0.025381803512573242,-0.019051505252718925
1717513008117755000,0.6657548828125,0.0015544891357421875,0.03563319146633148,-0.02898157387971878
1717513008127761400,0.675761474609375,-0.0031881332397460938,0.03619331121444702,-0.02462032623589039
1717513008137768000,0.685767822265625,0.0062732696533203125,0.03213861584663391,-0.02493775263428688
1717513008147774500,0.6957744140625,0.0014514923095703125,0.032757148146629333,-0.020539944991469383
1717513008157781000,0.705781005859375,0.00612640380859375,0.028863154351711273,-0.030445095151662827
1717513008167787500,0.71578759765625,0.006014823913574219,0.03905663639307022,-0.021350737661123276
1717513008177794000,0.7257939453125,0.00119781494140625,0.03495447337627411,-0.02653372660279274
1717513008187800600,0.735800537109375,0.005878448486328125,0.04033789783716202,-0.017504507675766945
1717513008197807000,0.74580712890625,0.001064300537109375,0.040819793939590454,-0.02264830470085144
1717513008207813600,0.755813720703125,0.0010395050048828125,0.036585185676813126,-0.023100387305021286
1717513008217820200,0.765820068359375,0.00101470947265625,0.04183827340602875,-0.028254123404622078
1717513008227826700,0.77582666015625,0.0009889602661132812,0.037689972668886185,-0.028612740337848663
1717513008237833200,0.785833251953125,0.005672454833984375,0.0383194237947464,-0.028862109407782555
1717513008247839500,0.795839599609375,0.005570411682128906,0.03422972187399864,-0.029107898473739624
1717513008257846000,0.805845947265625,0.0007610321044921875,0.04423074796795845,-0.024744216352701187
1717513008267852500,0.8158525390625,-0.00396728515625,0.04464792087674141,-0.029870444908738136
1717513008277859000,0.825859130859375,0.0055084228515625,0.04045279696583748,-0.025494009256362915
1717513008287865600,0.835865478515625,0.0007009506225585938,0.04564157873392105,-0.026002343744039536
1717513008297872100,0.8458720703125,0.0006818771362304688,0.04613855108618736,-0.02629569172859192
1717513008307878700,0.855878662109375,0.0006628036499023438,0.04191865399479866,-0.03129272535443306
1717513008317885200,0.86588525390625,0.000644683837890625,0.04247770458459854,-0.03160109743475914
1717513008327891700,0.8758916015625,0.0006265640258789062,0.04302745684981346,-0.027195708826184273
1717513008337898200,0.885898193359375,0.0006093978881835938,0.043464817106723785,-0.02757231891155243
1717513008347904800,0.89590478515625,0.0053005218505859375,0.04399815574288368,-0.032651230692863464
1717513008357911300,0.905911376953125,-0.00421142578125,0.04441938176751137,-0.02802177704870701
1717513008367917800,0.915917724609375,-0.008856773376464844,0.04022824391722679,-0.028384556993842125
1717513008377924400,0.92592431640625,-0.0040073394775390625,0.054838091135025024,-0.03815844655036926
1717513008387930600,0.9359306640625,-0.003947257995605469,0.04095282405614853,-0.03364414721727371
1717513008397937200,0.945937255859375,0.000820159912109375,0.04142481088638306,-0.03391313552856445
1717513008407943700,0.955943603515625,0.0008001327514648438,0.051306143403053284,-0.03417762368917465
1717513008417950200,0.9659501953125,0.010198593139648438,0.04689700901508331,-0.02972908690571785
1717513008427956700,0.975956787109375,0.0006055831909179688,0.04726996645331383,-0.030063793063163757
1717513008437963300,0.98596337890625,0.010006904602050781,0.052345357835292816,-0.030392402783036232
1717513008447969800,0.9959697265625,0.005125999450683594,0.0478157214820385,-0.04013323038816452
1717513008457976300,1.005976318359375,0.0003261566162109375,0.04817347228527069,-0.03087681718170643
1717513008467982800,1.01598291015625,0.0003147125244140625,0.053130604326725006,-0.03590094670653343
1717513008477989400,1.0259892578125,0.00030422210693359375,0.0439826101064682,-0.036132242530584335
1717513008487996000,1.035995849609375,0.009710311889648438,0.04911287873983383,-0.03635966777801514
1717513008498002400,1.04600244140625,0.000125885009765625,0.04474049061536789,-0.03187469765543938
1717513008508009000,1.056009033203125,0.004826545715332031,0.054670028388500214,-0.027361204847693443
1717513008518015500,1.066015380859375,0.00003147125244140625,0.05491364747285843,-0.03715197369456291
1717513008528022000,1.07602197265625,-0.004683494567871094,0.055153217166662216,-0.03265376016497612
1717513008538028300,1.0860283203125,0.0048065185546875,0.05538880079984665,-0.03283584490418434
1717513008548034800,1.096034912109375,0.00001239776611328125,0.051015131175518036,-0.051952067762613297
1717513008558041300,1.106041259765625,0.00000667572021484375,0.051319703459739685,-0.042498547583818436
1717513008568047900,1.1160478515625,9.5367431640625e-7,0.05161920189857483,-0.037911172956228256
1717513008578054400,1.126054443359375,-0.000003814697265625,0.05191371962428093,-0.038108836859464645
1717513008588061000,1.13606103515625,0.00469970703125,0.06162054091691971,-0.03840645030140877
1717513008598067500,1.1460673828125,-0.00009250640869140625,0.061851657927036285,-0.029075391590595245
1717513008608074000,1.156073974609375,0.004612922668457031,0.052558477967977524,-0.034025631844997406
1717513008618080500,1.16608056640625,-0.0001773834228515625,0.06225460767745972,-0.0389966256916523
1717513008628087000,1.176087158203125,0.004528999328613281,0.05295475944876671,-0.034364745020866394
1717513008638093600,1.186093505859375,0.004448890686035156,0.04851851612329483,-0.03922681510448456
1717513008648100000,1.19610009765625,0.0043697357177734375,0.0582820288836956,-0.03950619325041771
1717513008658106600,1.206106689453125,-0.00041675567626953125,0.06317422538995743,-0.04428255558013916
1717513008668113200,1.216113037109375,-0.00041484832763671875,0.049150511622428894,-0.034853946417570114
1717513008678119700,1.22611962890625,0.009004592895507812,0.05890349671244621,-0.03499922901391983
1717513008688126000,1.2361259765625,-0.0005674362182617188,0.05426490306854248,-0.03995395451784134
1717513008698132500,1.246132568359375,-0.0005626678466796875,0.05441225320100784,-0.044723253697156906
1717513008708139000,1.256138916015625,-0.005265235900878906,0.05455712601542473,-0.04009871184825897
1717513008718145800,1.266145751953125,0.0042362213134765625,0.05940818041563034,-0.04496841877698898
1717513008728152300,1.27615234375,0.008870124816894531,0.05476122722029686,-0.035528331995010376
1717513008738158800,1.286158935546875,-0.005408287048339844,0.055003609508275986,-0.035662781447172165
1717513008748165400,1.296165283203125,0.0040950775146484375,0.06455588340759277,-0.04060683399438858
1717513008758172000,1.306171875,0.0040225982666015625,0.05511454492807388,-0.040656208992004395
1717513008768178400,1.316178466796875,0.008660316467285156,0.05995640158653259,-0.04551703855395317
1717513008778185000,1.32618505859375,0.0038022994995117188,0.05540357530117035,-0.03606697544455528
1717513008788191700,1.336191650390625,0.0037355422973632812,0.05553201586008072,-0.041003886610269547
1717513008798198300,1.3461982421875,0.008378028869628906,0.06036696583032608,-0.041150324046611786
1717513008808204800,1.356204833984375,-0.005890846252441406,0.05570412054657936,-0.0412939228117466
1717513008818211300,1.36621142578125,0.0036211013793945312,0.0605362243950367,-0.041435521095991135
1717513008828217900,1.3762177734375,-0.00115203857421875,0.060475900769233704,-0.04147108644247055
1717513008838224400,1.386224365234375,-0.00113677978515625,0.05581128969788551,-0.041609738022089005
1717513008848231000,1.39623095703125,0.0035867691040039062,0.06535018980503082,-0.037037063390016556
1717513008858237700,1.40623779296875,-0.0011854171752929688,0.06050105020403862,-0.037145938724279404
1717513008868244200,1.416244140625,-0.0011692047119140625,0.05583600699901581,-0.04677346348762512
1717513008878250800,1.426250732421875,-0.0011529922485351562,0.06066591292619705,-0.037406131625175476
1717513008888257300,1.43625732421875,-0.0058460235595703125,0.06060345843434334,-0.03761211782693863
1717513008898263800,1.446263916015625,0.0036649703979492188,0.05593671649694443,-0.04252326115965843
1717513008908270300,1.456270263671875,-0.005817413330078125,0.06547355651855469,-0.04254068434238434
1717513008918276900,1.46627685546875,0.008401870727539062,0.06543424725532532,-0.04266107827425003
1717513008928283400,1.476283447265625,0.0035495758056640625,0.05597847327589989,-0.042676620185375214
1717513008938290200,1.486290283203125,0.00348663330078125,0.056097496300935745,-0.03798329830169678
1717513008948296700,1.496296630859375,-0.005991935729980469,0.06092309206724167,-0.04278499633073807
1717513008958303200,1.50630322265625,-0.0011873245239257812,0.07027357816696167,-0.03819272294640541
1717513008968309800,1.516309814453125,-0.001171112060546875,0.060737114399671555,-0.052408117800951004
1717513008978316300,1.52631640625,-0.0011548995971679688,0.05596490576863289,-0.04284360632300377
1717513008988322800,1.53632275390625,0.0035696029663085938,0.06068949028849602,-0.03343890607357025
1717513008998329300,1.546329345703125,0.0035066604614257812,0.05591814965009689,-0.04783721640706062
1717513009008336100,1.556336181640625,-0.005972862243652344,0.06535208225250244,-0.038452163338661194
1717513009018342700,1.5663427734375,0.0035400390625,0.051085781306028366,-0.03382885828614235
1717513009028349200,1.57634912109375,-0.005939483642578125,0.05589165538549423,-0.04340839758515358
1717513009038355700,1.586355712890625,-0.010552406311035156,0.06061742827296257,-0.043411072343587875
1717513009048362200,1.5963623046875,-0.0009632110595703125,0.060555823147296906,-0.038705095648765564
1717513009058368800,1.60636865234375,-0.0009508132934570312,0.05107811093330383,-0.04349515959620476
1717513009068375300,1.616375244140625,-0.00093841552734375,0.05588408187031746,-0.03878777474164963
1717513009078381800,1.6263818359375,-0.005635261535644531,0.055901430547237396,-0.038867849856615067
1717513009088388400,1.636388427734375,-0.0008363723754882812,0.06062701344490051,-0.03884291276335716
1717513009098395000,1.646394775390625,0.0038824081420898438,0.05585664138197899,-0.039024922996759415
1717513009108401400,1.6564013671875,0.003814697265625,0.06518839299678802,-0.039101049304008484
1717513009118408000,1.666407958984375,0.0037479400634765625,0.05553014948964119,-0.04388411343097687
1717513009128414500,1.67641455078125,0.0036821365356445312,0.06026194989681244,-0.0484841987490654
1717513009138420700,1.686420654296875,0.0036182403564453125,0.06010302156209946,-0.04840229079127312
1717513009148427300,1.69642724609375,-0.0011529922485351562,0.05994680896401405,-0.038904983550310135
1717513009158433800,1.706433837890625,-0.00113677978515625,0.05508453771471977,-0.043691352009773254
1717513009168440300,1.7164404296875,0.0035877227783203125,0.05501190200448036,-0.04839794710278511
1717513009178446800,1.72644677734375,0.0035247802734375,0.059649016708135605,-0.0435052253305912
1717513009188453400,1.736453369140625,-0.0012454986572265625,0.05950037017464638,-0.04350676387548447
1717513009198460000,1.7464599609375,-0.0059356689453125,0.05464553460478783,-0.04811318963766098
1717513009208466400,1.756466552734375,0.008286476135253906,0.063894122838974,-0.0385170504450798
1717513009218473000,1.766472900390625,-0.0012712478637695312,0.058966122567653656,-0.04331035912036896
1717513009228479500,1.7764794921875,0.00345611572265625,0.058828845620155334,-0.048023782670497894
1717513009238486000,1.786486083984375,-0.0060214996337890625,0.06329913437366486,-0.038429174572229385
1717513009248492500,1.796492431640625,-0.005924224853515625,0.0536724328994751,-0.038515377789735794
1717513009258499000,1.8064990234375,-0.0011196136474609375,0.053520042449235916,-0.03849644213914871
1717513009268505600,1.816505615234375,0.013022422790527344,0.053370192646980286,-0.038477830588817596
1717513009278512000,1.82651220703125,0.0033855438232421875,0.05803472176194191,-0.047876738011837006
1717513009288518400,1.836518310546875,-0.0013818740844726562,0.05780963972210884,-0.03838789463043213
1717513009298525000,1.84652490234375,0.0033473968505859375,0.05758830904960632,-0.03837113082408905
1717513009308531500,1.856531494140625,0.0032892227172851562,0.05266207456588745,-0.03835466131567955
1717513009318538000,1.8665380859375,0.0032320022583007812,0.05252654477953911,-0.04304707422852516
1717513009328544500,1.87654443359375,0.0031757354736328125,0.052289944142103195,-0.038243647664785385
1717513009338551000,1.886551025390625,-0.0015888214111328125,0.05676594376564026,-0.04293794184923172
1717513009348557600,1.8965576171875,-0.0015649795532226562,0.056458741426467896,-0.0381368063390255
1717513009358564000,1.906564208984375,-0.0015420913696289062,0.05155133083462715,-0.04293617606163025
1717513009368570600,1.916570556640625,-0.0015192031860351562,0.05133103206753731,-0.038135088980197906
1717513009378577200,1.9265771484375,-0.0014963150024414062,0.055823005735874176,-0.04283123090863228
1717513009388583700,1.936583740234375,0.007943153381347656,0.050926174968481064,-0.0473458394408226
1717513009398590200,1.946590087890625,-0.006318092346191406,0.05081960931420326,-0.0424717552959919
1717513009408596700,1.9565966796875,0.0032014846801757812,0.04590294510126114,-0.04238750785589218
1717513009418603300,1.966603271484375,-0.0015630722045898438,0.050485409796237946,-0.04701327160000801
1717513009428609500,1.976609619140625,0.0031690597534179688,0.05499144271016121,-0.0421442911028862
1717513009438616000,1.986615966796875,-0.0015954971313476562,0.05000517889857292,-0.04196179658174515
1717513009448622600,1.99662255859375,-0.0015716552734375,0.054519206285476685,-0.03717702999711037
1717513009458629000,2.006629150390625,-0.0015478134155273438,0.0542493537068367,-0.03707686811685562
1717513009468635600,2.0166357421875,0.007892608642578125,0.049275439232587814,-0.037082135677337646
1717513009478642200,2.02664208984375,-0.001659393310546875,0.053801629692316055,-0.03698405995965004
1717513009488648700,2.036648681640625,0.0030736923217773438,0.04883517697453499,-0.03688763082027435
1717513009498655200,2.0466552734375,0.0030202865600585938,0.048556823283433914,-0.041501421481370926
1717513009508661800,2.056661865234375,0.0029668807983398438,0.052991703152656555,-0.04132973402738571
1717513009518668300,2.066668212890625,-0.0017938613891601562,0.047935426235198975,-0.04126370698213577
1717513009528674800,2.0766748046875,-0.0017671585083007812,0.052483927458524704,-0.04109600931406021
1717513009538681300,2.086681396484375,0.0076770782470703125,0.04753941297531128,-0.04574298486113548
1717513009548688000,2.09668798828125,-0.011287689208984375,0.0472826324403286,-0.040792062878608704
1717513009558694400,2.1066943359375,0.0030231475830078125,0.05184198543429375,-0.03592365235090256
1717513009568701000,2.116700927734375,-0.0017385482788085938,0.04690815135836601,-0.04065686836838722
1717513009578707200,2.126707275390625,-0.001712799072265625,0.04676513746380806,-0.03568745777010918
1717513009588713700,2.136713623046875,-0.0016870498657226562,0.046521227806806564,-0.04032135009765625
1717513009598720300,2.14672021484375,-0.0016613006591796875,0.05580184608697891,-0.03546081855893135
1717513009608726800,2.156726806640625,0.0030717849731445312,0.05069870874285698,-0.040098510682582855
1717513009618733300,2.1667333984375,0.003017425537109375,0.04568059742450714,-0.04465840756893158
1717513009628739800,2.17673974609375,-0.0017442703247070312,0.045454736799001694,-0.035017043352127075
1717513009638746400,2.186746337890625,-0.006426811218261719,0.04994123801589012,-0.04437076672911644
1717513009648753000,2.1967529296875,-0.001613616943359375,0.04493574798107147,-0.03473421558737755
1717513009658759400,2.206759521484375,-0.0015897750854492188,0.049430880695581436,-0.03938407450914383
1717513009668766000,2.216765869140625,-0.0015659332275390625,0.04914248362183571,-0.03924785181879997
1717513009678772500,2.2267724609375,-0.0015430450439453125,0.03944168984889984,-0.04371923580765724
1717513009688779000,2.236779052734375,-0.0015201568603515625,0.039319753646850586,-0.03869890794157982
1717513009698785500,2.24678564453125,0.0079193115234375,0.04861702024936676,-0.02905312553048134
1717513009708792000,2.2567919921875,-0.0016326904296875,0.053050752729177475,-0.033797722309827805
1717513009718798300,2.26679833984375,0.0031003952026367188,0.03857619687914848,-0.03835998848080635
1717513009728804900,2.276804931640625,-0.0016622543334960938,0.038468655198812485,-0.038137082010507584
1717513009738811400,2.286811279296875,-0.006344795227050781,0.04296822473406792,-0.037918440997600555
1717513009748818000,2.29681787109375,0.0031757354736328125,0.05220466107130051,-0.037702903151512146
1717513009758824400,2.306824462890625,-0.0015878677368164062,0.05166340991854668,-0.028177054598927498
1717513009768831000,2.3168310546875,-0.00156402587890625,0.041817255318164825,-0.03764493390917778
1717513009778837500,2.32683740234375,-0.0015411376953125,0.04626099020242691,-0.04214315488934517
1717513009788844000,2.336843994140625,-0.00151824951171875,0.04602532461285591,-0.03725250065326691
1717513009798850600,2.3468505859375,-0.0062046051025390625,0.05039891228079796,-0.03704812750220299
1717513009808857000,2.356857177734375,0.008021354675292969,0.04057379812002182,-0.03684717416763306
1717513009818863600,2.366863525390625,-0.0015325546264648438,0.040329623967409134,-0.03194155544042587
1717513009828870400,2.376870361328125,0.0031986236572265625,0.040089525282382965,-0.04134620353579521
1717513009838877000,2.386876953125,0.0031423568725585938,0.03985340893268585,-0.040970951318740845
1717513009848883500,2.396883544921875,0.0030870437622070312,0.04903842508792877,-0.03599606826901436
1717513009858890000,2.406889892578125,0.007740974426269531,0.04394455626606941,-0.021686919033527374
1717513009868896500,2.416896484375,0.007609367370605469,0.04835279658436775,-0.035971131175756454
1717513009878903000,2.426903076171875,-0.0019369125366210938,0.04316708818078041,-0.031079627573490143
1717513009888909600,2.43690966796875,-0.006615638732910156,0.038171082735061646,-0.03568686172366142
1717513009898916000,2.446916015625,-0.0017995834350585938,0.042675528675317764,-0.04021730646491051
1717513009908923000,2.4569228515625,-0.0017719268798828125,0.037687670439481735,-0.035255659371614456
1717513009918929400,2.466929443359375,-0.0017452239990234375,0.042200133204460144,-0.03047998994588852
1717513009928936000,2.47693603515625,0.0029897689819335938,0.04192880913615227,-0.030388645827770233
1717513009938942500,2.4869423828125,-0.0017709732055664062,0.041558731347322464,-0.03490415960550308
1717513009948949000,2.496948974609375,-0.0017442703247070312,0.04129808768630028,-0.03944769874215126
1717513009958955500,2.50695556640625,-0.0017175674438476562,0.04104175046086311,-0.039310816675424576
1717513009968962000,2.516962158203125,0.007725715637207031,0.03608110919594765,-0.02965513803064823
1717513009978968800,2.52696875,0.0028867721557617188,0.040517035871744156,-0.02957821451127529
1717513009988975400,2.536975341796875,0.0028371810913085938,0.04017046093940735,-0.02950197085738182
1717513009998982000,2.54698193359375,0.0027875900268554688,0.03041243553161621,-0.03413623943924904
1717513010008988400,2.556988525390625,0.00273895263671875,0.03023427352309227,-0.029378728941082954
1717513010018995000,2.566994873046875,-0.0020170211791992188,0.04418487101793289,-0.02930583991110325
1717513010029001500,2.57700146484375,-0.0019855499267578125,0.0390685610473156,-0.038548100739717484
1717513010039008000,2.587008056640625,-0.006663322448730469,0.03874611109495163,-0.038219135254621506
1717513010049014800,2.597014892578125,-0.0018453598022460938,0.03832574188709259,-0.02858174778521061
1717513010059021300,2.607021240234375,-0.0018167495727539062,0.03320377692580223,-0.03323078900575638
1717513010069027800,2.61702783203125,0.0029201507568359375,0.037687648087739944,-0.033093757927417755
1717513010079034400,2.627034423828125,0.0028696060180664062,0.03267958015203476,-0.03295902535319328
1717513010089041000,2.637041015625,-0.0065975189208984375,0.03236030042171478,-0.03272327408194542
1717513010099047400,2.64704736328125,-0.0017805099487304688,0.03214961290359497,-0.027782857418060303
1717513010109054000,2.657053955078125,0.007663726806640625,0.03665102273225784,-0.03725713491439819
1717513010119060500,2.667060546875,0.0028257369995117188,0.031556934118270874,-0.036949776113033295
1717513010129067300,2.6770673828125,-0.0019330978393554688,0.03135962039232254,-0.032042235136032104
1717513010139073800,2.68707373046875,-0.0019025802612304688,0.031165525317192078,-0.02240528166294098
1717513010149080300,2.697080322265625,-0.0018739700317382812,0.030974723398685455,-0.03186595067381859
1717513010159086800,2.7070869140625,0.0028638839721679688,0.030683815479278564,-0.03175175189971924
1717513010169093400,2.71709326171875,-0.0018949508666992188,0.035209573805332184,-0.03624546527862549
1717513010179100000,2.727099853515625,0.012259483337402344,0.030242815613746643,-0.031245745718479156
1717513010189106400,2.7371064453125,0.0026350021362304688,0.03948456048965454,-0.031141918152570724
1717513010199113000,2.747113037109375,-0.006829261779785156,0.03444647789001465,-0.030936557799577713
1717513010209119500,2.757119384765625,-0.0020084381103515625,0.03409775346517563,-0.02602533996105194
1717513010219126000,2.7671259765625,0.0027313232421875,0.03375483304262161,-0.030613182112574577
1717513010229132500,2.777132568359375,-0.002025604248046875,0.0288122296333313,-0.030416663736104965
1717513010239139000,2.78713916015625,0.0027151107788085938,0.03326591104269028,-0.02551482990384102
1717513010249145600,2.7971455078125,-0.002040863037109375,0.02822815626859665,-0.025403305888175964
1717513010259152100,2.807152099609375,-0.0020084381103515625,0.027982965111732483,-0.030002249404788017
1717513010269158700,2.81715869140625,-0.006686210632324219,0.03255373239517212,-0.025107350200414658
1717513010279165200,2.827165283203125,-0.0018682479858398438,0.027527838945388794,-0.02971123903989792
1717513010289171500,2.83717138671875,0.00286865234375,0.02739766240119934,-0.024923767894506454
1717513010299178000,2.847177978515625,0.0028181076049804688,0.03197817504405975,-0.029634006321430206
1717513010309184500,2.8571845703125,-0.0019388198852539062,0.03156718611717224,-0.02945387363433838
1717513010319191000,2.86719091796875,-0.0019092559814453125,0.031369589269161224,-0.019859561696648598
1717513010329197600,2.877197509765625,-0.006587982177734375,0.021654821932315826,-0.02465422824025154
1717513010339204000,2.8872041015625,0.00293731689453125,0.030936427414417267,-0.024659669026732445
1717513010349210600,2.897210693359375,-0.0018215179443359375,0.025834277272224426,-0.0292703527957201
1717513010359217200,2.907217041015625,-0.00179290771484375,0.025629036128520966,-0.024387000128626823
1717513010369223700,2.9172236328125,-0.0017652511596679688,0.0207185298204422,-0.02429436892271042
1717513010379230200,2.927230224609375,-0.0017375946044921875,0.0300157368183136,-0.028911154717206955
1717513010389236700,2.93723681640625,0.00299835205078125,0.025032103061676025,-0.028846409171819687
1717513010399243300,2.9472431640625,-0.00176239013671875,0.034257322549819946,-0.02397087961435318
1717513010409249800,2.957249755859375,0.0029735565185546875,0.029202990233898163,-0.028593817725777626
1717513010419256300,2.96725634765625,-0.0017862319946289062,0.028941579163074493,-0.028430376201868057
1717513010429262800,2.977262939453125,-0.0017576217651367188,0.019163958728313446,-0.028270412236452103
1717513010439269000,2.98726904296875,0.007687568664550781,0.02367507666349411,-0.023404523730278015
1717513010449275600,2.997275634765625,-0.0018596649169921875,0.023505695164203644,-0.023328345268964767
1717513010459282200,3.0072822265625,-0.0018291473388671875,0.027944453060626984,-0.027962040156126022
1717513010469288700,3.017288818359375,-0.0017995834350585938,0.03230922669172287,-0.02780992165207863
1717513010479295200,3.027295166015625,-0.0017719268798828125,0.022578828036785126,-0.027659591287374496
1717513010489301800,3.0373017578125,-0.001743316650390625,0.022324420511722565,-0.027409257367253304
1717513010499308300,3.047308349609375,0.0029926300048828125,0.022177517414093018,-0.022557778283953667
1717513010509314800,3.057314697265625,0.0029420852661132812,0.021929778158664703,-0.02720436453819275
1717513010519321300,3.0673212890625,-0.011234283447265625,0.026498153805732727,-0.022355549037456512
1717513010529327900,3.077327880859375,0.0030775070190429688,0.026178397238254547,-0.03171411529183388
1717513010539334400,3.08733447265625,-0.0016841888427734375,0.02596724033355713,-0.026790926232933998
1717513010549341000,3.0973408203125,-0.0016584396362304688,0.02105100452899933,-0.03126371279358864
1717513010559347500,3.107347412109375,-0.0016317367553710938,0.025530613958835602,-0.021639443933963776
1717513010569354000,3.11735400390625,0.0031023025512695312,0.020621635019779205,-0.02630138210952282
1717513010579360500,3.127360595703125,-0.0063686370849609375,0.02050306648015976,-0.026073753833770752
1717513010589366800,3.13736669921875,-0.0015544891357421875,0.02499190717935562,-0.0259524118155241
1717513010599373300,3.147373291015625,-0.001529693603515625,0.015280023217201233,-0.025833887979388237
1717513010609379800,3.1573798828125,-0.0015048980712890625,0.01985590159893036,-0.02561328187584877
1717513010619386400,3.167386474609375,-0.0061893463134765625,0.014938324689865112,-0.020687758922576904
1717513010629393000,3.177392822265625,-0.006087303161621094,0.024228356778621674,-0.020553719252347946
1717513010639399400,3.1873994140625,0.0034303665161132812,0.023946493864059448,-0.02983832359313965
1717513010649406000,3.197406005859375,-0.0013360977172851562,0.018960587680339813,-0.020237870514392853
1717513010659412500,3.20741259765625,0.0033941268920898438,0.023474976420402527,-0.020111357793211937
1717513010669419000,3.2174189453125,0.0033369064331054688,0.02320551872253418,-0.024798834696412086
1717513010679425500,3.227425537109375,-0.0014286041259765625,0.022940553724765778,-0.019887728616595268
1717513010689432000,3.23743212890625,-0.0014057159423828125,0.0226801335811615,-0.029183469712734222
1717513010699438600,3.2474384765625,0.0033254623413085938,0.022320643067359924,-0.02430257946252823
1717513010709445000,3.257445068359375,-0.0061492919921875,0.022173680365085602,-0.019503049552440643
1717513010719451600,3.26745166015625,0.0033693313598632812,0.01721743494272232,-0.024199895560741425
1717513010729458000,3.2774580078125,-0.006104469299316406,0.016948983073234558,-0.024007417261600494
1717513010739464400,3.28746435546875,-0.006003379821777344,0.02139359712600708,-0.0239214226603508
1717513010749471000,3.297470947265625,0.0035142898559570312,0.021055519580841064,-0.014316408894956112
1717513010759477500,3.3074775390625,-0.001255035400390625,0.02082635462284088,-0.023809149861335754
1717513010769484000,3.317484130859375,-0.0012340545654296875,0.01108068972826004,-0.018913792446255684
1717513010779490600,3.327490478515625,-0.010631561279296875,0.010914638638496399,-0.028329093009233475
1717513010789497000,3.3374970703125,-0.0057468414306640625,0.010751351714134216,-0.023461678996682167
1717513010799503600,3.347503662109375,-0.005652427673339844,0.020111240446567535,-0.02328071929514408
1717513010809510100,3.35751025390625,0.0038585662841796875,0.015086069703102112,-0.027811376377940178
1717513010819516700,3.3675166015625,0.0037937164306640625,0.01956184208393097,-0.022952605038881302
1717513010829523200,3.377523193359375,0.0037298202514648438,0.014545656740665436,-0.022780995815992355
1717513010839530000,3.387530029296875,0.0036668777465820312,0.019030429422855377,-0.013297484256327152
1717513010849536500,3.39753662109375,-0.005812644958496094,0.014023102819919586,-0.02270401269197464
1717513010859543000,3.40754296875,0.00370025634765625,0.013807989656925201,-0.017827125266194344
1717513010869549600,3.417549560546875,-0.0010709762573242188,0.01830504834651947,-0.027260588482022285
1717513010879556000,3.42755615234375,-0.0010538101196289062,0.00860121101140976,-0.017703302204608917
1717513010889562600,3.437562744140625,-0.0010366439819335938,0.017790377140045166,-0.02232697606086731
1717513010899569200,3.447569091796875,0.003688812255859375,0.012700594961643219,-0.01755966618657112
1717513010909575700,3.45757568359375,0.003627777099609375,0.017112836241722107,-0.01747715473175049
1717513010919582500,3.46758251953125,0.003566741943359375,0.021554648876190186,-0.022105498239398003
1717513010929589000,3.477589111328125,-0.0012025833129882812,0.01660866290330887,-0.017238641157746315
1717513010939595500,3.487595458984375,-0.0011835098266601562,0.011641830205917358,-0.02187010459601879
1717513010949602000,3.49760205078125,0.003543853759765625,0.006757952272891998,-0.02642349898815155
1717513010959608600,3.507608642578125,-0.0059337615966796875,0.016081087291240692,-0.01677609421312809
1717513010969615000,3.517614990234375,-0.005835533142089844,0.011123038828372955,-0.016809947788715363
1717513010979621600,3.52762158203125,0.0036792755126953125,0.015561558306217194,-0.016739971935749054
1717513010989628400,3.53762841796875,0.0036172866821289062,0.01532077044248581,-0.021379772573709488
1717513010999635000,3.547635009765625,0.0035572052001953125,0.010272122919559479,-0.02123364992439747
1717513011009641500,3.557641357421875,-0.0059185028076171875,0.010016210377216339,-0.025695297867059708
1717513011019648000,3.56764794921875,-0.0011119842529296875,0.009867824614048004,-0.01606006734073162
1717513011029654500,3.577654541015625,-0.005802154541015625,0.0049100518226623535,-0.020711222663521767
1717513011039661000,3.5876611328125,0.0037107467651367188,0.014263778924942017,-0.020577160641551018
1717513011049667600,3.59766748046875,0.0036478042602539062,0.009335994720458984,-0.011027244850993156
1717513011059674000,3.607674072265625,-0.0011224746704101562,0.0139075368642807,-0.020470891147851944
1717513011069681000,3.617680908203125,-0.0011043548583984375,0.008985690772533417,-0.01573462225496769
1717513011079687400,3.6276875,-0.0010862350463867188,0.018271490931510925,-0.02028886042535305
1717513011089694000,3.63769384765625,-0.0010690689086914062,0.0038595274090766907,-0.015453275293111801
1717513011099700500,3.647700439453125,-0.0010519027709960938,0.013230927288532257,-0.02011457458138466
1717513011109707000,3.65770703125,-0.0010347366333007812,0.013028942048549652,-0.01046912930905819
1717513011119713500,3.667713623046875,-0.0010166168212890625,0.012727059423923492,-0.015110237523913383
1717513011129720000,3.677719970703125,0.0037088394165039062,0.01724206656217575,-0.01967400498688221
1717513011139726800,3.687726806640625,0.0036468505859375,0.01216135174036026,-0.01955638825893402
1717513011149733400,3.6977333984375,0.0035848617553710938,0.011977173388004303,-0.014732139185070992
1717513011159740000,3.707739990234375,-0.0011835098266601562,0.002275608479976654,-0.02882269211113453
1717513011169746400,3.717746337890625,0.0035448074340820312,0.0021529197692871094,-0.019135423004627228
1717513011179753000,3.7277529296875,-0.0012235641479492188,0.006844133138656616,-0.014318203553557396
1717513011189759500,3.737759521484375,-0.0012035369873046875,0.0019367113709449768,-0.01899847388267517
1717513011199766000,3.74776611328125,-0.0058917999267578125,0.0018196627497673035,-0.014183545485138893
1717513011209772800,3.757772705078125,-0.0057926177978515625,0.011121757328510284,-0.018762795254588127
1717513011219779300,3.767779296875,0.0037212371826171875,0.010851822793483734,-0.01865946501493454
1717513011229785900,3.777785888671875,-0.005757331848144531,0.005877584218978882,-0.01374693214893341
1717513011239792400,3.78779248046875,-0.0056610107421875,0.01050671935081482,-0.018333474174141884
1717513011249798700,3.797798583984375,-0.005566596984863281,0.010246828198432922,-0.013529645279049873
1717513011259805200,3.80780517578125,-0.0007658004760742188,0.010094739496707916,-0.01822214014828205
1717513011269811700,3.817811767578125,-0.0007534027099609375,0.009841710329055786,-0.01812877506017685
1717513011279818200,3.827818359375,0.003968238830566406,0.004884295165538788,-0.017933709546923637
1717513011289824800,3.83782470703125,-0.0008077621459960938,0.00011276453733444214,-0.013136563822627068
1717513011299831300,3.847831298828125,0.003914833068847656,0.0047346800565719604,-0.01773330569267273
1717513011309837800,3.857837890625,0.0038509368896484375,0.00927957147359848,-0.012836242094635963
1717513011319844400,3.86784423828125,-0.0009222030639648438,0.009040109813213348,-0.017541266977787018
1717513011329851000,3.877850830078125,0.0038013458251953125,0.004096038639545441,-0.012750683352351189
1717513011339857400,3.887857421875,0.0037384033203125,0.008651569485664368,-0.01745714619755745
1717513011349864000,3.897864013671875,-0.0010328292846679688,0.003817237913608551,-0.017273306846618652
1717513011359870500,3.907870361328125,0.003692626953125,0.008377403020858765,-0.012487202882766724
1717513011369877000,3.917876953125,-0.0010766983032226562,-0.001264221966266632,-0.01709480583667755
1717513011379883500,3.927883544921875,0.003650665283203125,0.007985956966876984,-0.01702028512954712
1717513011389889800,3.937889892578125,-0.001117706298828125,0.0077680423855781555,-0.016843747347593307
1717513011399896300,3.947896240234375,-0.0010976791381835938,0.002845160663127899,-0.01667015813291073
1717513011409902800,3.95790283203125,0.0036287307739257812,0.007421515882015228,-0.011894132941961288
1717513011419909400,3.967909423828125,0.0035686492919921875,0.002504400908946991,-0.021323509514331818
1717513011429916000,3.977916015625,-0.0011987686157226562,0.0069833844900131226,-0.007051773369312286
1717513011439922400,3.98792236328125,-0.0011777877807617188,-0.0026350244879722595,-0.011749999597668648
1717513011449929000,3.997928955078125,0.003551483154296875,-0.0026757121086120605,-0.011660350486636162
1717513011459935500,4.007935546875,-0.0012159347534179688,0.006701469421386719,-0.011675465852022171
1717513011469942000,4.01794189453125,0.0035142898559570312,0.0017963498830795288,-0.016296643763780594
1717513011479948500,4.027948486328125,0.0034580230712890625,0.0015785247087478638,-0.01613122597336769
1717513011489955000,4.037955078125,0.008109092712402344,0.006175972521305084,-0.011364221572875977
1717513011499961600,4.047961669921875,0.0032663345336914062,0.0012798234820365906,-0.01128101721405983
1717513011509968100,4.057968017578125,0.0032129287719726562,-0.0035347193479537964,-0.01119920238852501
1717513011519974700,4.067974609375,-0.0015478134155273438,-0.0035604238510131836,-0.011118751019239426
1717513011529981200,4.077981201171875,-0.0015201568603515625,0.01043681800365448,-0.011039642617106438
1717513011539987500,4.087987548828125,-0.006201744079589844,0.010074742138385773,-0.01567145064473152
1717513011549994000,4.097993896484375,-0.0013875961303710938,0.00030150264501571655,-0.010808870196342468
1717513011560000500,4.10800048828125,-0.0013628005981445312,0.004817187786102295,-0.015443537384271622
1717513011570007000,4.118007080078125,-0.0060482025146484375,0.0046525076031684875,-0.020103229209780693
1717513011580013600,4.128013671875,0.0034704208374023438,-0.00032176822423934937,-0.010561473667621613
1717513011590020000,4.13802001953125,-0.0012950897216796875,-0.0004010424017906189,-0.01520027406513691
1717513011600026600,4.148026611328125,-0.0012722015380859375,-0.000478990375995636,-0.015053164213895798
1717513011610033200,4.158033203125,-0.0012493133544921875,-0.0006589069962501526,-0.014908507466316223
1717513011620039700,4.168039794921875,-0.0012273788452148438,-0.0007325634360313416,-0.019474856555461884
1717513011630046200,4.178046142578125,-0.0012054443359375,0.003800339996814728,-0.014547912403941154
1717513011640052700,4.188052734375,0.0035247802734375,-0.0011595040559768677,-0.009703082963824272
1717513011650059300,4.198059326171875,0.0034666061401367188,-0.0013280883431434631,-0.014459474012255669
1717513011660065800,4.208065673828125,0.0034093856811523438,0.0033177658915519714,-0.019034335389733315
1717513011670072300,4.218072265625,-0.0013551712036132812,0.003177821636199951,-0.00940614566206932
1717513011680078600,4.22807861328125,0.0033779144287109375,0.012354135513305664,-0.00935562327504158
1717513011690085000,4.238085205078125,0.0033235549926757812,0.002543129026889801,-0.014014549553394318
1717513011700091600,4.248091552734375,-0.001438140869140625,-0.0023957863450050354,-0.009178632870316505
1717513011710098200,4.25809814453125,-0.0014123916625976562,-0.0025437772274017334,-0.009131915867328644
1717513011720104700,4.268104736328125,-0.0013866424560546875,-0.00739789754152298,-0.013794580474495888
1717513011730111200,4.278111328125,-0.0013628005981445312,-0.002650916576385498,-0.008963361382484436
1717513011740117800,4.28811767578125,-0.001338958740234375,-0.0026913881301879883,-0.013525564223527908
1717513011750124300,4.298124267578125,-0.001316070556640625,0.0019771456718444824,-0.018116025254130363
1717513011760130800,4.308130859375,0.0034160614013671875,-0.002952590584754944,-0.013212792575359344
1717513011770137300,4.318137451171875,0.003360748291015625,0.0016172900795936584,-0.00839024968445301
1717513011780143900,4.328143798828125,-0.0014019012451171875,0.0061109960079193115,-0.008356684818863869
1717513011790150700,4.338150634765625,-0.0060863494873046875,0.001215621829032898,-0.013033321127295494
1717513011800157200,4.3481572265625,-0.00127410888671875,0.0010074228048324585,-0.012922378256917
1717513011810163700,4.358163818359375,0.0034580230712890625,-0.0039059072732925415,-0.01752188242971897
1717513011820170200,4.368170166015625,0.0034027099609375,-0.004028744995594025,-0.01723286509513855
1717513011830176800,4.3781767578125,0.008056640625,-0.00414980947971344,-0.01234438456594944
1717513011840183300,4.388183349609375,-0.0109100341796875,0.0004400014877319336,-0.007536336779594421
1717513011850189800,4.39818994140625,-0.0013093948364257812,-0.0091724693775177,-0.007517024874687195
1717513011860196400,4.4081962890625,-0.0012865066528320312,-0.013915874063968658,-0.007600255310535431
1717513011870203100,4.418203125,-0.0012636184692382812,0.004962503910064697,-0.012288475409150124
1717513011880209700,4.428209716796875,-0.0012407302856445312,-0.0047250837087631226,-0.012085644528269768
1717513011890216200,4.43821630859375,-0.0012178421020507812,-0.00012568384408950806,-0.011990513652563095
1717513011900222700,4.44822265625,-0.0059051513671875,-0.009625457227230072,-0.007188370451331139
1717513011910229200,4.458229248046875,-0.0010967254638671875,-0.009652987122535706,-0.011883459985256195
1717513011920235800,4.46823583984375,0.0036306381225585938,-0.0048681870102882385,-0.007083099335432053
1717513011930242300,4.4782421875,0.0035724639892578125,-0.009683594107627869,-0.011779943481087685
1717513011940249000,4.4882490234375,-0.0011949539184570312,-0.005001559853553772,-0.007084580138325691
1717513011950255600,4.498255615234375,0.0035352706909179688,-0.00039755553007125854,-0.007072804495692253
1717513011960262100,4.50826220703125,-0.0012302398681640625,-0.0005788803100585938,-0.0023526325821876526
1717513011970268700,4.5182685546875,0.0034999847412109375,-0.005466051399707794,-0.011941250413656235
1717513011980275200,4.528275146484375,0.0034418106079101562,-0.0007510259747505188,-0.007243206724524498
1717513011990281700,4.53828173828125,0.0033864974975585938,-0.010343380272388458,-0.007227739319205284
1717513012000288300,4.548288330078125,0.0033311843872070312,0.003766849637031555,-0.012025458738207817
1717513012010295000,4.558294921875,0.007986068725585938,-0.0011924877762794495,-0.0071194786578416824
1717513012020301600,4.568301513671875,-0.0015621185302734375,-0.006069168448448181,-0.011815741658210754
1717513012030308000,4.57830810546875,0.007882118225097656,-0.0013438314199447632,-0.007015470415353775
1717513012040314600,4.588314697265625,0.0030431747436523438,-0.0014061182737350464,-0.01642206311225891
1717513012050321200,4.598321044921875,-0.0064239501953125,-0.0015706494450569153,-0.011649366468191147
1717513012060327700,4.60832763671875,-0.0063152313232421875,-0.011149629950523376,-0.006852937862277031
1717513012070334200,4.618334228515625,0.003208160400390625,-0.011048495769500732,-0.0021364502608776093
1717513012080340700,4.6283408203125,0.0031557083129882812,-0.01565791666507721,-0.006813555955886841
1717513012090347500,4.638347412109375,0.0031042098999023438,-0.0013555735349655151,-0.0068052541464567184
1717513012100354000,4.64835400390625,0.0030536651611328125,-0.006126269698143005,-0.011403480544686317
1717513012110360600,4.658360595703125,-0.006412506103515625,-0.0015035346150398254,-0.0017992760986089706
1717513012120367000,4.6683671875,-0.0015954971313476562,0.003042154014110565,-0.006584210321307182
1717513012130373600,4.67837353515625,-0.0015668869018554688,-0.00661371648311615,-0.011289402842521667
1717513012140380200,4.688380126953125,0.003170013427734375,-0.00669146329164505,-0.01110430434346199
1717513012150386700,4.69838671875,0.0031185150146484375,-0.006664641201496124,-0.01092229038476944
1717513012160393500,4.7083935546875,-0.00164031982421875,-0.006741538643836975,-0.006034711375832558
1717513012170400000,4.71839990234375,-0.0016117095947265625,-0.006713598966598511,-0.005832847207784653
1717513012180406500,4.728406494140625,0.003124237060546875,-0.0019780993461608887,-0.010551635175943375
1717513012190413000,4.7384130859375,-0.006342887878417969,-0.006841711699962616,-0.0150874312967062
1717513012200419600,4.748419677734375,0.0031785964965820312,-0.011359035968780518,-0.005417361855506897
1717513012210426000,4.758426025390625,-0.0015840530395507812,0.0030333325266838074,-0.014846602454781532
1717513012220432600,4.7684326171875,-0.0015573501586914062,-0.006460502743721008,-0.014598751440644264
1717513012230439200,4.778439208984375,-0.0062389373779296875,-0.006379052996635437,-0.00954374484717846
1717513012240445700,4.78844580078125,0.0032825469970703125,-0.0015905797481536865,-0.009385505691170692
1717513012250452200,4.7984521484375,0.007936477661132812,0.0031178146600723267,-0.01393922045826912
1717513012260458800,4.808458740234375,-0.0016117095947265625,-0.001669466495513916,-0.013604892417788506
1717513012270465300,4.81846533203125,-0.0015840530395507812,-0.011085912585258484,0.0008487924933433533
1717513012280471800,4.828471923828125,-0.0015573501586914062,-0.0015117228031158447,-0.008586669340729713
1717513012290478300,4.838478271484375,0.0031766891479492188,-0.00141143798828125,-0.013053994625806808
1717513012300484900,4.84848486328125,-0.0015840530395507812,-0.006124816834926605,-0.008029673248529434
1717513012310491400,4.858491455078125,0.00315093994140625,-0.0013431832194328308,-0.007903169840574265
1717513012320498000,4.868497802734375,-0.0063190460205078125,-0.0013502836227416992,-0.012488596141338348
1717513012330504400,4.87850439453125,0.0032024383544921875,-0.010671630501747131,-0.007581695914268494
1717513012340511000,4.888510986328125,-0.0015592575073242188,-0.00110694020986557,-0.007466506212949753
1717513012350517200,4.898517333984375,-0.006241798400878906,-0.0011192485690116882,-0.007354598492383957
1717513012360523800,4.908523681640625,0.0032806396484375,-0.005840308964252472,-0.011851254850625992
1717513012370530300,4.9185302734375,-0.006191253662109375,-0.005774088203907013,-0.0022507645189762115
1717513012380536800,4.928536865234375,-0.0060882568359375,-0.0010006651282310486,-0.006937455385923386
1717513012390543400,4.93854345703125,-0.001277923583984375,-0.00572456419467926,-0.006839858368039131
1717513012400550000,4.9485498046875,0.008160591125488281,-0.005661346018314362,-0.006745224818587303
1717513012410556400,4.958556396484375,0.0033159255981445312,-0.005599357187747955,-0.0019448604434728622
1717513012420563000,4.96856298828125,0.007968902587890625,-0.0007266625761985779,-0.006539657711982727
1717513012430569500,4.978569580078125,0.0031270980834960938,-0.005455411970615387,-0.006452649831771851
1717513012440576000,4.988575927734375,-0.0016336441040039062,0.004020087420940399,-0.0063692256808280945
1717513012450582500,4.99858251953125,-0.001605987548828125,-0.0007881149649620056,-0.0062881819903850555
1717513012460589000,5.008589111328125,-0.0015783309936523438,-0.005515776574611664,-0.0061050765216350555
1717513012470595600,5.018595703125,0.0031576156616210938,-0.005455903708934784,-0.0059258900582790375
1717513012480602000,5.02860205078125,0.007814407348632812,-0.0006885677576065063,-0.01046016439795494
1717513012490608400,5.0386083984375,-0.0017337799072265625,0.004102841019630432,-0.01031433790922165
1717513012500615000,5.048614990234375,-0.001705169677734375,-0.0007057785987854004,0.0039540864527225494
1717513012510621400,5.058621337890625,0.007740020751953125,-0.010142184793949127,-0.0008493475615978241
1717513012520628000,5.0686279296875,-0.0018053054809570312,-0.005295507609844208,-0.005471181124448776
1717513012530634500,5.078634521484375,-0.0017757415771484375,-0.0004256144165992737,-0.005513511598110199
1717513012540641000,5.08864111328125,0.007672309875488281,-0.014574505388736725,-0.0053502097725868225
1717513012550647600,5.0986474609375,-0.0018739700317382812,-0.0001323223114013672,-0.005293410271406174
1717513012560654000,5.108654052734375,0.0075740814208984375,-0.004868112504482269,-0.005238000303506851
1717513012570660600,5.11866064453125,-0.0019693374633789062,-0.014232814311981201,-0.0004742369055747986
1717513012580667100,5.128667236328125,-0.0019378662109375,-0.004503726959228516,-0.0052084363996982574
1717513012590673700,5.138673583984375,0.0028028488159179688,0.0002520829439163208,-0.005154334008693695
1717513012600680200,5.14868017578125,0.0027570724487304688,0.0002200677990913391,-0.009707704186439514
1717513012610686700,5.158686767578125,0.007419586181640625,-0.004519619047641754,-0.00016283243894577026
1717513012620693200,5.168693359375,-0.0021219253540039062,-0.004367731511592865,0.004515286535024643
1717513012630699800,5.17869970703125,0.0026226043701171875,-0.004321299493312836,-0.009615752846002579
1717513012640706000,5.1887060546875,0.0025777816772460938,-0.004172377288341522,-0.004677984863519669
1717513012650712600,5.198712646484375,-0.006882667541503906,0.00058002769947052,-0.009341981261968613
1717513012660719000,5.208718994140625,-0.0020599365234375,-0.0040604472160339355,0.00019751116633415222
1717513012670725600,5.2187255859375,0.0026836395263671875,0.005399145185947418,-0.009153127670288086
1717513012680732200,5.228732177734375,0.0026378631591796875,0.0006787329912185669,0.0003831721842288971
1717513012690738700,5.23873876953125,0.0073032379150390625,0.0006424486637115479,0.0004465952515602112
1717513012700745200,5.2487451171875,0.0024738311767578125,-0.004101745784282684,0.005217529833316803
1717513012710751700,5.258751708984375,-0.006984710693359375,-0.004058212041854858,0.00028514862060546875
1717513012720758300,5.26875830078125,0.0025482177734375,-0.00862070918083191,-0.00446179136633873
1717513012730764800,5.278764892578125,-0.0022039413452148438,-0.0036900117993354797,0.00028756633400917053
1717513012740771600,5.288771484375,0.007250785827636719,-0.00836203247308731,0.00035245344042778015
1717513012750778000,5.298778076171875,-0.0022869110107421875,0.00587841123342514,-0.009103145450353622
1717513012760784600,5.30878466796875,0.0024585723876953125,-0.00826764851808548,-0.004277385771274567
1717513012770791200,5.318791259765625,-0.007000923156738281,-0.00334341824054718,0.00046904757618904114
1717513012780797700,5.328797607421875,0.0025339126586914062,0.00139521062374115,-0.004177462309598923
1717513012790804200,5.33880419921875,-0.006926536560058594,-0.0032593607902526855,-0.004141118377447128
1717513012800810800,5.348810791015625,-0.002101898193359375,-0.00793997198343277,0.0007065869867801666
1717513012810817500,5.358817626953125,-0.0020656585693359375,-0.0031257644295692444,-0.0039436183869838715
1717513012820824000,5.368823974609375,-0.0020313262939453125,0.0016078054904937744,-0.003910932689905167
1717513012830830600,5.37883056640625,-0.0019979476928710938,-0.007760792970657349,-0.008485101163387299
1717513012840837000,5.388837158203125,-0.001964569091796875,0.0017577782273292542,0.001040525734424591
1717513012850843600,5.39884375,-0.006641387939453125,-0.0029052570462226868,-0.0037184245884418488
1717513012860850200,5.40885009765625,0.002887725830078125,0.0018228739500045776,-0.0035862214863300323
1717513012870856700,5.418856689453125,0.0028409957885742188,0.0017631128430366516,-0.003456283360719681
1717513012880863200,5.42886328125,-0.0019159317016601562,0.0018071234226226807,0.0012767091393470764
1717513012890870000,5.4388701171875,-0.0018835067749023438,0.0017466172575950623,-0.003383226692676544
1717513012900876500,5.44887646484375,-0.0018510818481445312,0.0016866028308868408,-0.0032570436596870422
1717513012910883000,5.458883056640625,-0.001819610595703125,0.0016270950436592102,0.0015754513442516327
1717513012920889600,5.4688896484375,-0.006497383117675781,-0.003140874207019806,-0.007799647748470306
1717513012930896100,5.478896240234375,-0.011097908020019531,0.0016909986734390259,-0.002891935408115387
1717513012940902700,5.488902587890625,-0.0014944076538085938,0.0016300231218338013,-0.0027749277651309967
1717513012950909200,5.4989091796875,0.007948875427246094,-0.0031389594078063965,0.0020483694970607758
1717513012960916000,5.508916015625,-0.0016012191772460938,0.0015883371233940125,-0.002729598432779312
1717513012970922500,5.518922607421875,-0.0015735626220703125,0.0015278682112693787,-0.002513241022825241
1717513012980929000,5.528928955078125,0.007868766784667969,-0.003137253224849701,-0.007216162979602814
1717513012990935600,5.538935546875,-0.006386756896972656,-0.007828205823898315,0.0023877695202827454
1717513013000942000,5.548942138671875,-0.0015707015991210938,0.001684531569480896,0.0024137794971466064
1717513013010948600,5.558948486328125,-0.001544952392578125,0.0016212910413742065,-0.0023732371628284454
1717513013020955100,5.568955078125,0.0031900405883789062,-0.0031496956944465637,-0.006977979093790054
1717513013030961700,5.578961669921875,-0.006279945373535156,0.006387762725353241,0.00261896476149559
1717513013040968400,5.588968505859375,-0.0014677047729492188,0.0016403496265411377,-0.006882604211568832
1717513013050975000,5.59897509765625,0.007974624633789062,0.001576945185661316,0.0027098581194877625
1717513013060981500,5.6089814453125,-0.0015745162963867188,-0.007902257144451141,0.0027252882719039917
1717513013070988000,5.618988037109375,0.0031604766845703125,0.0016108900308609009,-0.002072446048259735
1717513013080994600,5.62899462890625,0.0031080245971679688,0.0016515851020812988,0.0027291961014270782
1717513013091001000,5.6390009765625,0.003055572509765625,-0.003017336130142212,0.002636820077896118
1717513013101007600,5.649007568359375,-0.0017042160034179688,-0.0030026882886886597,-0.011579867452383041
1717513013111014400,5.659014404296875,0.0030336380004882812,-0.00298859179019928,-0.0019154958426952362
1717513013121021000,5.66902099609375,0.0029840469360351562,-0.0029742643237113953,-0.0018294639885425568
1717513013131027500,5.67902734375,0.0029354095458984375,-0.0029600635170936584,-0.0017459839582443237
1717513013141034000,5.689033935546875,0.007596015930175781,0.0017626285552978516,0.007752176374197006
1717513013151040500,5.69904052734375,0.0027618408203125,0.0016981810331344604,0.002965115010738373
1717513013161047000,5.709047119140625,-0.0019922256469726562,-0.0030736103653907776,0.0029653050005435944
1717513013171053600,5.719053466796875,-0.0019578933715820312,-0.003057435154914856,-0.001745268702507019
1717513013181060400,5.729060302734375,-0.0019245147705078125,-0.003040909767150879,-0.0016688257455825806
1717513013191067000,5.73906689453125,-0.0018911361694335938,-0.007733374834060669,0.003112800419330597
1717513013201073400,5.749073486328125,0.002849578857421875,-0.007638357579708099,-0.0016025304794311523
1717513013211080000,5.759079833984375,0.0028028488159179688,0.0018725767731666565,0.0031768418848514557
1717513013221086500,5.76908642578125,0.007464408874511719,-0.002900831401348114,-0.006354611366987228
1717513013231093000,5.779093017578125,0.0073413848876953125,0.0018228739500045776,0.003209419548511505
1717513013241099500,5.789099609375,-0.002197265625,-0.012365758419036865,-0.0014084503054618835
1717513013251106000,5.79910595703125,0.00725555419921875,-0.007379837334156036,0.0032602883875370026
1717513013261112600,5.809112548828125,0.0024261474609375,-0.0025798678398132324,-0.0014636851847171783
1717513013271119000,5.819119140625,-0.002323150634765625,-0.002568066120147705,-0.006109882146120071
1717513013281125600,5.829125732421875,-0.002285003662109375,-0.002452738583087921,-0.0012623891234397888
1717513013291132200,5.839132080078125,-0.002246856689453125,-0.0024425536394119263,-0.006018109619617462
1717513013301138700,5.849138671875,-0.0022106170654296875,0.002380162477493286,-0.0011739768087863922
1717513013311145000,5.85914501953125,-0.00217437744140625,0.0024143606424331665,-0.0011200495064258575
1717513013321151500,5.8691513671875,0.007279396057128906,0.0023451298475265503,-0.001067880541086197
1717513013331158000,5.879157958984375,0.00244903564453125,0.002277076244354248,0.003690149635076523
1717513013341164500,5.88916455078125,0.002407073974609375,0.002314232289791107,-0.0010481327772140503
1717513013351171000,5.899171142578125,-0.00234222412109375,-0.0023574382066726685,0.0037089139223098755
1717513013361177600,5.909177490234375,0.0024051666259765625,-0.007054135203361511,-0.0010313726961612701
1717513013371184000,5.91918408203125,0.0023651123046875,0.0024535804986953735,-0.0010881833732128143
1717513013381190700,5.929190673828125,0.0023250579833984375,0.002489253878593445,-0.0057502128183841705
1717513013391197200,5.939197265625,0.002285003662109375,-0.002183973789215088,0.0036871321499347687
1717513013401203700,5.94920361328125,-0.007170677185058594,0.007243454456329346,0.003652472048997879
1717513013411210200,5.959210205078125,0.0070743560791015625,-0.002320431172847748,0.003617614507675171
1717513013421216800,5.969216796875,0.0022478103637695312,0.0024010315537452698,0.008187908679246902
1717513013431223300,5.979223388671875,-0.0072078704833984375,0.007147200405597687,-0.0013411790132522583
1717513013441229800,5.989229736328125,0.0023298263549804688,0.0022938475012779236,-0.0012949034571647644
1717513013451236000,5.999236083984375,0.006999969482421875,0.0022299960255622864,-0.010770481079816818
1717513013461242600,6.00924267578125,-0.007243156433105469,-0.0024377480149269104,-0.001149989664554596
1717513013471249200,6.019249267578125,-0.002414703369140625,0.0023890286684036255,-0.001108560711145401
1717513013481255700,6.029255615234375,0.0023345947265625,-0.002385273575782776,0.0035370364785194397
1717513013491262200,6.03926220703125,0.007004737854003906,-0.0023716166615486145,-0.001209113746881485
1717513013501268700,6.049268798828125,0.006888389587402344,0.002350151538848877,-0.0011679120361804962
1717513013511275300,6.059275146484375,0.0020647048950195312,0.002284318208694458,-0.0011277012526988983
1717513013521281800,6.06928173828125,0.0020294189453125,0.0023221448063850403,-0.0010894499719142914
1717513013531288300,6.079288330078125,0.0067043304443359375,0.0022560805082321167,0.008262880146503448
1717513013541294800,6.089294921875,-0.0028247833251953125,-0.0025178715586662292,0.003436654806137085
1717513013551301400,6.09930126953125,-0.0027790069580078125,0.002307809889316559,0.0032960399985313416
1717513013561308000,6.109307861328125,-0.0027332305908203125,0.0023440346121788025,0.0032609589397907257
1717513013571314400,6.119314453125,-0.0026874542236328125,-0.0024322867393493652,0.007832754403352737
1717513013581321000,6.129321044921875,0.0020647048950195312,-0.0023179426789283752,-0.0017984583973884583
1717513013591327500,6.139327392578125,0.011447906494140625,0.002398967742919922,-0.001852910965681076
1717513013601333800,6.149333740234375,-0.007576942443847656,-0.0023800283670425415,-0.0018020011484622955
1717513013611340300,6.15934033203125,0.0019664764404296875,-0.007079824805259705,-0.0017517320811748505
1717513013621346800,6.169346923828125,-0.0027751922607421875,-0.0022845491766929626,-0.0018053129315376282
1717513013631353300,6.179353271484375,0.0019788742065429688,-0.0021749213337898254,-0.0017543919384479523
1717513013641360000,6.18935986328125,-0.0074710845947265625,0.0025377869606018066,-0.00641254335641861
1717513013651366400,6.199366455078125,0.006778717041015625,-0.0021423473954200745,-0.006284058094024658
1717513013661373000,6.209373046875,0.0019559860229492188,0.002672344446182251,0.0031566284596920013
1717513013671379500,6.21937939453125,-0.0074939727783203125,-0.0021140575408935547,0.003023240715265274
1717513013681386000,6.229385986328125,0.002048492431640625,0.002596154808998108,0.0029958561062812805
1717513013691392500,6.239392578125,0.006722450256347656,-0.0020864084362983704,-0.0017391480505466461
1717513013701399000,6.24939892578125,0.0019006729125976562,-0.0019826740026474,0.002919219434261322
1717513013711405800,6.25940576171875,0.0018682479858398438,-0.0018810182809829712,0.007603798061609268
1717513013721412400,6.269412353515625,-0.0028715133666992188,0.0028238892555236816,0.002690400928258896
1717513013731419000,6.2794189453125,0.0065937042236328125,-0.006675384938716888,-0.0020361989736557007
1717513013741425400,6.28942529296875,0.0017747879028320312,0.002817310392856598,0.0027327723801136017
1717513013751432000,6.299431884765625,-0.002964019775390625,-0.001871056854724884,0.0027142763137817383
1717513013761438500,6.3094384765625,0.006501197814941406,-0.0017730370163917542,-0.0021151751279830933
1717513013771445000,6.319445068359375,-0.003025054931640625,-0.0016770213842391968,-0.0020516179502010345
1717513013781451500,6.329451416015625,-0.0029745101928710938,-0.006291583180427551,-0.0018851980566978455
1717513013791458300,6.339458251953125,-0.002925872802734375,0.0032961294054985046,-0.001824215054512024
1717513013801464800,6.34946484375,0.0018301010131835938,0.0033063963055610657,0.007550250738859177
1717513013811471400,6.359471435546875,0.006506919860839844,-0.0013925954699516296,-0.001962054520845413
1717513013821478000,6.369477783203125,-0.007727622985839844,0.003300122916698456,-0.0020013712346553802
1717513013831484400,6.379484375,-0.00289154052734375,-0.0013998374342918396,-0.0019362270832061768
1717513013841491000,6.389490966796875,-0.0075511932373046875,-0.001416712999343872,-0.001871686428785324
1717513013851497500,6.39949755859375,0.00199127197265625,-0.0013306215405464172,0.0029008090496063232
1717513013861504300,6.409504150390625,0.0019578933715820312,-0.0013498663902282715,-0.006634939461946487
1717513013871510800,6.4195107421875,0.001926422119140625,0.0033391639590263367,-0.006490934640169144
1717513013881517300,6.429517333984375,0.006602287292480469,0.00805266946554184,-0.0017437189817428589
1717513013891523800,6.43952392578125,0.006491661071777344,-0.0014388710260391235,-0.006492543965578079
1717513013901530400,6.4495302734375,0.001674652099609375,-0.0013557225465774536,-0.006350077688694
1717513013911537000,6.459536865234375,-0.0030622482299804688,-0.0012750700116157532,0.003309730440378189
1717513013921543400,6.46954345703125,-0.003009796142578125,0.008117780089378357,-0.0014193281531333923
1717513013931550000,6.479550048828125,0.0017490386962890625,-0.001481078565120697,0.003244493156671524
1717513013941556700,6.489556640625,-0.0029878616333007812,0.007913678884506226,-0.0014832094311714172
1717513013951563300,6.499563232421875,0.011186599731445312,-0.0015800222754478455,0.0031818747520446777
1717513013961569800,6.50956982421875,0.0015840530395507812,-0.006310917437076569,-0.0015446506440639496
1717513013971576300,6.519576416015625,0.0015573501586914062,0.003265380859375,-0.006192371249198914
1717513013981582800,6.529582763671875,-0.0031785964965820312,-0.006153024733066559,0.0032598525285720825
1717513013991589400,6.53958935546875,-0.0031251907348632812,0.003419220447540283,-0.006073314696550369
1717513014001596000,6.549595947265625,0.0016345977783203125,-0.0012945830821990967,-0.0013317875564098358
1717513014011602700,6.559602783203125,0.006316184997558594,-0.0012219548225402832,-0.0012746825814247131
1717513014021609200,6.569609130859375,-0.0032062530517578125,0.00355733186006546,0.003489948809146881
1717513014031615700,6.57961572265625,-0.0031538009643554688,0.0035480037331581116,0.0033641494810581207
1717513014041622300,6.589622314453125,-0.003101348876953125,0.003537707030773163,0.0033425800502300262
1717513014051628800,6.59962890625,0.006366729736328125,0.012944042682647705,0.0032179467380046844
1717513014061635300,6.60963525390625,-0.0031576156616210938,-0.001350104808807373,-0.0016133375465869904
1717513014071641900,6.619641845703125,-0.00310516357421875,-0.0012813284993171692,0.0031552650034427643
1717513014081648400,6.6296484375,0.0016565322875976562,0.003391638398170471,0.00313771516084671
1717513014091655200,6.6396552734375,0.001628875732421875,-0.0013282820582389832,0.0031193457543849945
1717513014101661700,6.64966162109375,0.0016031265258789062,-0.0013649389147758484,-0.0016074106097221375
1717513014111668200,6.659668212890625,-0.003131866455078125,-0.0012983903288841248,-0.00625547394156456
1717513014121674800,6.6696748046875,-0.0030794143676757812,0.008183546364307404,-0.006117574870586395
1717513014131681300,6.679681396484375,-0.0030269622802734375,0.0032776668667793274,0.0034351088106632233
1717513014141687800,6.689687744140625,-0.0029764175415039062,-0.006255730986595154,-0.001400630921125412
1717513014151694300,6.6996943359375,0.0017824172973632812,0.00320347398519516,-0.006052639335393906
1717513014161701000,6.709701171875,-0.0029554367065429688,0.0031908899545669556,-0.010626263916492462
1717513014171707600,6.719707763671875,0.0018024444580078125,0.003177538514137268,-0.005707666277885437
1717513014181714200,6.729714111328125,0.0017728805541992188,0.003060951828956604,-0.005578797310590744
1717513014191720700,6.739720703125,-0.0029649734497070312,0.0030486658215522766,-0.0007446892559528351
1717513014201727200,6.749727294921875,0.006501197814941406,0.0030360519886016846,-0.000699952244758606
1717513014211733800,6.759733642578125,0.0016841888427734375,-0.0016854703426361084,0.004052408039569855
1717513014221740300,6.769740234375,-0.007760047912597656,-0.006432101130485535,-0.0006918907165527344
1717513014231746800,6.779746826171875,0.0017852783203125,-0.006288252770900726,0.003956515341997147
1717513014241753300,6.78975341796875,0.0017547607421875,-0.006044402718544006,0.0039208270609378815
1717513014251759900,6.799759765625,-0.007691383361816406,-0.0011994093656539917,-0.005530741065740585
1717513014261766400,6.809766357421875,0.0018529891967773438,0.0036676302552223206,0.004009295254945755
1717513014271773000,6.81977294921875,0.0018224716186523438,0.00364115834236145,-0.0007357820868492126
1717513014281779500,6.829779541015625,0.0017919540405273438,-0.0058025941252708435,0.004118368029594421
1717513014291786000,6.839785888671875,0.00176239013671875,0.0037449151277542114,-0.0006292350590229034
1717513014301792500,6.84979248046875,-0.0029764175415039062,0.0037155821919441223,-0.0006928034126758575
1717513014311799000,6.859799072265625,0.011198043823242188,-0.0010223984718322754,0.008661448955535889
1717513014321805300,6.869805419921875,0.011010169982910156,-0.010287247598171234,0.003836836665868759
1717513014331811800,6.879811767578125,0.0014085769653320312,0.004041463136672974,-0.0010111331939697266
1717513014341818400,6.889818359375,-0.0033235549926757812,-0.0007035881280899048,-0.0009668990969657898
1717513014351825000,6.899824951171875,0.0014400482177734375,-0.0006615594029426575,-0.0009238831698894501
1717513014361831400,6.90983154296875,-0.0032911300659179688,0.00869305431842804,-0.0008820667862892151
1717513014371838000,6.919837890625,0.00147247314453125,-0.0008399784564971924,-0.0007381364703178406
1717513014381844500,6.929844482421875,0.0014476776123046875,0.003911025822162628,-0.0007003806531429291
1717513014391851000,6.93985107421875,0.0014238357543945312,-0.005543619394302368,-0.0006637610495090485
1717513014401857500,6.949857421875,-0.0033082962036132812,-0.000715598464012146,-0.0006282702088356018
1717513014411864000,6.959864013671875,-0.0032529830932617188,0.00874020904302597,-0.000592891126871109
1717513014421870600,6.96987060546875,-0.0031976699829101562,-0.0009004399180412292,-0.0004563741385936737
1717513014431877000,6.979877197265625,0.0062732696533203125,-0.0009640008211135864,-0.00042599812150001526
1717513014441883600,6.989883544921875,-0.0032482147216796875,0.003784194588661194,0.004310868680477142
1717513014451890200,6.99989013671875,0.001514434814453125,-0.005672954022884369,0.004260580986738205
1717513014461896700,7.009896728515625,-0.0032196044921875,-0.0008475109934806824,0.0042105019092559814
1717513014471903000,7.019903076171875,0.0015439987182617188,-0.0009151846170425415,0.008869215846061707
1717513014481909500,7.029909423828125,-0.0031890869140625,-0.000982142984867096,-0.00538373738527298
1717513014491916000,7.039916015625,-0.00313568115234375,-0.005654454231262207,0.008850764483213425
1717513014501922600,7.049922607421875,0.00162506103515625,-0.0008320659399032593,-0.0006946325302124023
1717513014511929000,7.05992919921875,0.001598358154296875,-0.0007997453212738037,0.004043158143758774
1717513014521935600,7.069935546875,0.0015716552734375,-0.0007682293653488159,0.008702289313077927
1717513014531942100,7.079942138671875,-0.0031633377075195312,-0.0007382333278656006,-0.005552325397729874
1717513014541948700,7.08994873046875,-0.0031108856201171875,0.008708298206329346,-0.000631377100944519
1717513014551955200,7.099955078125,-0.0030603408813476562,-0.005442827939987183,0.004103574901819229
1717513014561961700,7.109961669921875,0.0016984939575195312,0.004184000194072723,-0.00536789745092392
1717513014571968300,7.11996826171875,-0.007747650146484375,0.004129432141780853,0.008757457137107849
1717513014581974800,7.129974853515625,-0.0029096603393554688,-0.0006332620978355408,-0.005501642823219299
1717513014591981300,7.139981201171875,0.0018463134765625,-0.000505104660987854,-0.0006894581019878387
1717513014601987800,7.14998779296875,0.0018148422241210938,0.004329115152359009,0.004041761159896851
1717513014611994000,7.159994140625,-0.0029249191284179688,-0.0004381239414215088,-0.0008271336555480957
1717513014622000600,7.170000732421875,-0.00287628173828125,0.008999466896057129,-0.0007004700601100922
1717513014632007200,7.180007080078125,0.001880645751953125,0.004153534770011902,0.008737239986658096
1717513014642013700,7.190013671875,0.0018491744995117188,-0.0006120800971984863,0.0038911253213882446
1717513014652020200,7.200020263671875,0.0018186569213867188,0.008827470242977142,0.003834657371044159
1717513014662027000,7.210027099609375,-0.0029201507568359375,0.003983050584793091,-0.005639772862195969
1717513014672033500,7.220033447265625,0.0018367767333984375,0.003927499055862427,0.0038774125277996063
1717513014682040000,7.2300400390625,0.0018053054809570312,-0.005441509187221527,0.003818124532699585
1717513014692046600,7.240046630859375,-0.002933502197265625,0.00878480076789856,-0.0010526776313781738
1717513014702053000,7.25005322265625,-0.0028839111328125,-0.0008728280663490295,-0.005739573389291763
1717513014712059600,7.2600595703125,0.001873016357421875,-0.000849209725856781,-0.005639277398586273
1717513014722066200,7.270066162109375,0.0018415451049804688,-0.0008269846439361572,-0.0008335411548614502
1717513014732073000,7.280072998046875,-0.0028972625732421875,-0.0008057504892349243,0.008703548461198807
1717513014742079500,7.29007958984375,-0.0028486251831054688,0.003923073410987854,0.003852199763059616
1717513014752086000,7.3000859375,0.0019063949584960938,0.008675672113895416,0.00378992035984993
1717513014762092500,7.310092529296875,0.0018749237060546875,0.0038282200694084167,0.0037293285131454468
1717513014772099000,7.32009912109375,0.006552696228027344,-0.0009396001696586609,-0.001040194183588028
1717513014782105600,7.330105712890625,0.006443023681640625,-0.0009201541543006897,-0.005730532109737396
1717513014792112000,7.340112060546875,-0.003082275390625,-0.005506783723831177,-0.005633380264043808
1717513014802118700,7.35011865234375,0.00638580322265625,0.004004284739494324,-0.005539111793041229
1717513014812125400,7.36012548828125,0.0015707015991210938,0.003938779234886169,-0.005549918860197067
1717513014822132000,7.370132080078125,-0.0031652450561523438,0.008685380220413208,-0.0007488355040550232
1717513014832138500,7.380138427734375,-0.00311279296875,-0.0008767023682594299,0.003869812935590744
1717513014842145000,7.39014501953125,0.00164794921875,-0.0008634850382804871,0.003805067390203476
1717513014852151600,7.400151611328125,0.0016202926635742188,-0.005559928715229034,0.00363805890083313
1717513014862158000,7.410157958984375,0.0015935897827148438,0.003946863114833832,-0.001131489872932434
1717513014872164600,7.42016455078125,-0.0031423568725585938,-0.0007276982069015503,-0.0012151971459388733
1717513014882171400,7.43017138671875,-0.0030889511108398438,0.003885500133037567,0.003514464944601059
1717513014892178000,7.440177978515625,-0.0030374526977539062,0.003815382719039917,-0.0012527666985988617
1717513014902184400,7.450184326171875,-0.002986907958984375,0.00374574214220047,0.008185438811779022
1717513014912191000,7.46019091796875,0.0017709732055664062,0.003779873251914978,0.003340780735015869
1717513014922197500,7.470197509765625,-0.0029668807983398438,0.008418485522270203,-0.001421850174665451
1717513014932204000,7.4802041015625,0.0017910003662109375,-0.00585559755563736,-0.001397203654050827
1717513014942210600,7.49021044921875,-0.0029478073120117188,-0.0010579898953437805,-0.0014759153127670288
1717513014952217000,7.500217041015625,-0.0028982162475585938,0.0036594942212104797,-0.001448649913072586
1717513014962223900,7.510223876953125,-0.0075588226318359375,0.008297435939311981,0.0032861419022083282
1717513014972230400,7.52023046875,0.0019845962524414062,-0.001268237829208374,-0.001474764198064804
1717513014982237000,7.53023681640625,0.006661415100097656,0.008159413933753967,0.0033645890653133392
1717513014992243500,7.540243408203125,-0.007575035095214844,-0.0014049336314201355,-0.0015000402927398682
1717513015002250000,7.55025,0.0019683837890625,0.003315858542919159,-0.006178818643093109
1717513015012256500,7.560256591796875,-0.002773284912109375,-0.0014600306749343872,-0.0013629496097564697
1717513015022263000,7.570262939453125,0.006690025329589844,0.003260485827922821,-0.0013354308903217316
1717513015032269800,7.580269775390625,0.0065784454345703125,0.003193765878677368,0.003401767462491989
1717513015042276400,7.5902763671875,-0.0029478073120117188,0.0031278282403945923,-0.005961962044239044
1717513015052283000,7.600282958984375,-0.0028982162475585938,0.003062337636947632,-0.0011476092040538788
1717513015062289400,7.610289306640625,-0.007557868957519531,-0.0017108991742134094,-0.001018289476633072
1717513015072296000,7.6202958984375,0.0019845962524414062,0.0031156986951828003,-0.0009939298033714294
1717513015082302500,7.630302490234375,0.0019502639770507812,-0.0015555024147033691,-0.0009695366024971008
1717513015092309000,7.64030908203125,0.0019178390502929688,0.007873520255088806,0.003763437271118164
1717513015102315500,7.6503154296875,0.006594657897949219,-0.001689121127128601,-0.0009993314743041992
1717513015112322300,7.660322265625,0.006484031677246094,0.003136970102787018,-0.0009728260338306427
1717513015122328800,7.670328857421875,0.001667022705078125,-0.006346933543682098,0.003761034458875656
1717513015132335400,7.68033544921875,-0.0030698776245117188,0.00326479971408844,0.008416146039962769
1717513015142342000,7.690341796875,-0.0030183792114257812,-0.0015124529600143433,0.003577582538127899
1717513015152348400,7.700348388671875,0.001739501953125,0.008018873631954193,-0.0011803172528743744
1717513015162355000,7.71035498046875,0.0017108917236328125,0.0031617283821105957,0.0035572350025177
1717513015172361500,7.720361572265625,-0.0030260086059570312,-0.006323203444480896,-0.0012014470994472504
1717513015182368300,7.7303681640625,0.0017328262329101562,0.00789276510477066,0.00824485719203949
1717513015192374800,7.740374755859375,0.0017042160034179688,0.0030376166105270386,-0.0012998171150684357
1717513015202381300,7.75038134765625,0.0016756057739257812,0.0029714256525039673,-0.0012694485485553741
1717513015212387800,7.760387939453125,0.00164794921875,0.007614754140377045,0.008177343755960464
1717513015222394400,7.770394287109375,0.001621246337890625,0.002763703465461731,0.0034449025988578796
1717513015232401000,7.78040087890625,0.00159454345703125,-0.0020070746541023254,-0.0013133324682712555
1717513015242407400,7.790407470703125,0.010986328125,-0.006698526442050934,0.003527827560901642
1717513015252414000,7.8004140625,-0.008030891418457031,0.0028142035007476807,0.003476988524198532
1717513015262420200,7.810420166015625,0.0015201568603515625,0.007459215819835663,-0.0012831240892410278
1717513015272426800,7.8204267578125,0.006203651428222656,-0.0020987913012504578,0.003453776240348816
1717513015282433300,7.830433349609375,0.0013914108276367188,-0.002080492675304413,0.0081111378967762
1717513015292439800,7.840439697265625,0.0013675689697265625,0.002748824656009674,-0.0014365464448928833
1717513015302446300,7.8504462890625,0.006052970886230469,-0.0066283345222473145,-0.0013052523136138916
1717513015312452900,7.860452880859375,0.00124359130859375,-0.001723654568195343,-0.0011768043041229248
1717513015322459400,7.87045947265625,-0.0034856796264648438,-0.0017128661274909973,-0.0011544674634933472
1717513015332466000,7.8804658203125,-0.0034275054931640625,0.0031097382307052612,0.008388303220272064
1717513015342472400,7.890472412109375,-0.0033702850341796875,-0.006274133920669556,-0.0010630898177623749
1717513015352479000,7.90047900390625,0.0013942718505859375,0.0033324435353279114,-0.0009405314922332764
1717513015362485500,7.910485595703125,0.0013704299926757812,0.003361344337463379,0.003784485161304474
1717513015372492000,7.920491943359375,0.0060558319091796875,-0.006131120026111603,-0.0009872987866401672
1717513015382498600,7.93049853515625,0.005953788757324219,-0.001236751675605774,0.0037367604672908783
1717513015392505000,7.940505126953125,-0.0035638809204101562,0.008283786475658417,-0.0010370425879955292
1717513015402511400,7.950511474609375,0.0012044906616210938,0.0035197362303733826,-0.0009193122386932373
1717513015412518000,7.960517822265625,0.0011844635009765625,-0.005977332592010498,0.003800787031650543
1717513015422524400,7.9705244140625,0.0011644363403320312,-0.0011912956833839417,0.0037316158413887024
1717513015432531000,7.980531005859375,0.0058536529541015625,-0.0011942163109779358,-0.0010460205376148224
1717513015442537500,7.990537353515625,-0.0036611557006835938,0.003511674702167511,-0.0010344386100769043
