time,seconds_elapsed,z,y,x
1717512980583249700,0.125249755859375,-0.008519172668457031,0.013210654258728027,0.016427233815193176
1717512980593260300,0.13526025390625,-0.01629352569580078,0.016741439700126648,0.005653694272041321
1717512980603271700,0.145271728515625,-0.006114006042480469,0.015766844153404236,0.008879527449607849
1717512980613283800,0.155283935546875,-0.01000213623046875,0.006322972476482391,-0.0012567639350891113
1717512980623296000,0.1652958984375,-0.004822731018066406,0.006586931645870209,0.0025410763919353485
1717512980633308400,0.175308349609375,-0.008933067321777344,0.006773658096790314,0.0017340444028377533
1717512980643317200,0.185317138671875,-0.0083465576171875,0.00698244571685791,-0.0036753490567207336
1717512980653323800,0.19532373046875,-0.007834434509277344,0.007307663559913635,0.004803072661161423
1717512980663330300,0.205330322265625,-0.011892318725585938,0.007740914821624756,-0.0009171478450298309
1717512980673336800,0.2153369140625,-0.01576519012451172,0.008177332580089569,-0.006222587078809738
1717512980683343000,0.225343017578125,-0.0058746337890625,0.013251923024654388,0.00687757134437561
1717512980693349600,0.235349609375,-0.0010433197021484375,0.013660408556461334,-0.003303278237581253
1717512980703356200,0.245356201171875,-0.0010061264038085938,0.014083713293075562,0.0051339417695999146
1717512980713362700,0.25536279296875,-0.010113716125488281,0.01452016830444336,-0.0005120337009429932
1717512980723369000,0.265368896484375,-0.005106925964355469,0.010487928986549377,0.0032468922436237335
1717512980733375500,0.27537548828125,-0.0003185272216796875,0.011131517589092255,-0.007012760266661644
1717512980743382000,0.285382080078125,-0.004914283752441406,0.011769071221351624,-0.007578786462545395
1717512980753388300,0.29538818359375,-0.0001316070556640625,0.012299999594688416,-0.008135143667459488
1717512980763394800,0.305394775390625,-0.0001373291015625,0.012930318713188171,-0.0039715953171253204
1717512980773401300,0.3154013671875,-0.0047626495361328125,0.022892266511917114,-0.009398624300956726
1717512980783407900,0.325407958984375,0.0000133514404296875,0.01867007464170456,-0.0052011385560035706
1717512980793414100,0.3354140625,-0.004627227783203125,0.014509372413158417,-0.00588003545999527
1717512980803420700,0.345420654296875,-0.004488945007324219,0.02440086007118225,-0.01117747463285923
1717512980813427200,0.35542724609375,-0.004361152648925781,0.024832576513290405,-0.011581318452954292
1717512980823433700,0.365433837890625,-0.0042400360107421875,0.020530633628368378,-0.012085214257240295
1717512980833440000,0.37543994140625,0.0005197525024414062,0.016476012766361237,-0.017232932150363922
1717512980843446500,0.385446533203125,0.005145072937011719,0.017101116478443146,-0.012945281341671944
1717512980853453000,0.395453125,-0.0043201446533203125,0.022378265857696533,-0.008787291124463081
1717512980863459300,0.405459228515625,-0.008873939514160156,0.02763199806213379,-0.014067213982343674
1717512980873465900,0.4154658203125,-0.00399017333984375,0.023545347154140472,-0.014555234462022781
1717512980883472400,0.425472412109375,0.0007677078247070312,0.024040594696998596,-0.010273650288581848
1717512980893479000,0.43547900390625,-0.008600234985351562,0.024641908705234528,-0.01087612472474575
1717512980903485200,0.445485107421875,-0.0037288665771484375,0.025141537189483643,-0.01603984273970127
1717512980913491700,0.45549169921875,-0.008326530456542969,0.03052385151386261,-0.011843061074614525
1717512980923498200,0.465498291015625,0.0012102127075195312,0.021664395928382874,-0.02645951136946678
1717512980933504800,0.4755048828125,0.001171112060546875,0.022479787468910217,-0.017360180616378784
1717512980943511000,0.485510986328125,-0.0035467147827148438,0.023185834288597107,-0.013052081689238548
1717512980953517600,0.495517578125,0.005888938903808594,0.028572730720043182,-0.022998187690973282
1717512980963524000,0.505524169921875,0.005753517150878906,0.024485096335411072,-0.013896163552999496
1717512980973530400,0.5155302734375,-0.008442878723144531,0.025182589888572693,-0.019055243581533432
1717512980983537000,0.525536865234375,-0.008280754089355469,0.030567273497581482,-0.024220839142799377
1717512980993543400,0.53554345703125,-0.0034332275390625,0.031164556741714478,-0.015214541926980019
1717512981003550000,0.545550048828125,0.0013189315795898438,0.0363541916012764,-0.020371507853269577
1717512981013556200,0.55555615234375,0.0012836456298828125,0.027472034096717834,-0.016147449612617493
1717512981023562800,0.565562744140625,-0.003448486328125,0.03286184370517731,-0.02610320970416069
1717512981033569300,0.5755693359375,0.0013055801391601562,0.033463820815086365,-0.016981899738311768
1717512981043575800,0.585575927734375,-0.0034284591674804688,0.02466367930173874,-0.02223934605717659
1717512981053582000,0.59558203125,-0.0033769607543945312,0.030137531459331512,-0.022707326337695122
1717512981063588600,0.605588623046875,0.0013761520385742188,0.03562813252210617,-0.023174304515123367
1717512981073595100,0.61559521484375,0.0013427734375,0.031520187854766846,-0.023640338331460953
1717512981083601400,0.625601318359375,-0.0033969879150390625,0.041613005101680756,-0.019295018166303635
1717512981093608000,0.63560791015625,0.0013599395751953125,0.032611943781375885,-0.029256679117679596
1717512981103614500,0.645614501953125,0.006037712097167969,0.033281367272138596,-0.020114656537771225
1717512981113621000,0.65562109375,-0.008196830749511719,0.03864826261997223,-0.025354020297527313
1717512981123627500,0.66562744140625,-0.0033597946166992188,0.04392584040760994,-0.025796785950660706
1717512981133634000,0.675634033203125,0.0013971328735351562,0.034886304289102554,-0.026129543781280518
1717512981143640600,0.685640625,0.00136566162109375,0.03551788255572319,-0.0217481330037117
1717512981153647000,0.695647216796875,0.006043434143066406,0.04084756225347519,-0.026960164308547974
1717512981163653600,0.705653564453125,0.0012254714965820312,0.04608844593167305,-0.03208530694246292
1717512981173660200,0.71566015625,0.0011968612670898438,0.027699008584022522,-0.02770782634615898
1717512981183666700,0.725666748046875,0.0011692047119140625,0.037764422595500946,-0.03282046318054199
1717512981193673200,0.735673095703125,0.005850791931152344,0.04305674880743027,-0.023722078651189804
1717512981203679700,0.7456796875,0.00103759765625,0.038843706250190735,-0.0289011150598526
1717512981213686300,0.755686279296875,-0.0036954879760742188,0.03940949589014053,-0.019868016242980957
1717512981223692800,0.76569287109375,0.0010671615600585938,0.044674474745988846,-0.029819831252098083
1717512981233699000,0.775698974609375,0.001041412353515625,0.04043452441692352,-0.03018856793642044
1717512981243705600,0.78570556640625,0.005725860595703125,0.04087061807513237,-0.030551139265298843
1717512981253712100,0.795712158203125,0.0009145736694335938,0.04611131176352501,-0.030907655134797096
1717512981263718700,0.80571875,0.010309219360351562,0.04184747859835625,-0.02654961310327053
1717512981273725200,0.81572509765625,-0.0039958953857421875,0.047071948647499084,-0.026972796767950058
1717512981283731700,0.825731689453125,0.0007724761962890625,0.05220935493707657,-0.031994253396987915
1717512981293738200,0.83573828125,0.0007534027099609375,0.047843895852565765,-0.03222395479679108
1717512981303744800,0.845744873046875,-0.003973960876464844,0.04825986549258232,-0.032552510499954224
1717512981313751300,0.855751220703125,-0.00391387939453125,0.048668909817934036,-0.03297881409525871
1717512981323757800,0.8657578125,-0.0038547515869140625,0.04907114803791046,-0.03329474478960037
1717512981333764400,0.875764404296875,0.000911712646484375,0.04465484246611595,-0.028896788135170937
1717512981343771000,0.88577099609375,0.0055980682373046875,0.04983256384730339,-0.033886589109897614
1717512981353777400,0.89577734375,0.005497932434082031,0.050215452909469604,-0.03418734669685364
1717512981363784000,0.905783935546875,0.0053997039794921875,0.05059198662638664,-0.029774479568004608
1717512981373790200,0.915790283203125,-0.0041141510009765625,0.04625367373228073,-0.03485235199332237
1717512981383796700,0.925796630859375,0.0006570816040039062,0.046593017876148224,-0.03503372147679329
1717512981393803300,0.93580322265625,0.0006399154663085938,0.042321350425481796,-0.030503958463668823
1717512981403809800,0.945809814453125,0.0006227493286132812,0.04282950982451439,-0.04027821123600006
1717512981413816300,0.95581640625,0.0006055831909179688,0.05745500326156616,-0.03105514496564865
1717512981423822800,0.96582275390625,-0.00882720947265625,0.053002361208200455,-0.036008331924676895
1717512981433829400,0.975829345703125,-0.0039768218994140625,0.0579378716647625,-0.031461745500564575
1717512981443836000,0.9858359375,0.00550079345703125,0.05347717925906181,-0.04121996462345123
1717512981453842400,0.995842529296875,0.0006952285766601562,0.053799450397491455,-0.036689747124910355
1717512981463849000,1.005848876953125,-0.0040302276611328125,0.05411636456847191,-0.03694361820816994
1717512981473855500,1.01585546875,0.005448341369628906,0.04971940070390701,-0.037193238735198975
1717512981483862000,1.025862060546875,0.0006437301635742188,0.05481293797492981,-0.0420445092022419
1717512981493868500,1.03586865234375,-0.004080772399902344,0.055112987756729126,-0.03739725053310394
1717512981503875000,1.045875,0.000690460205078125,0.045990847051143646,-0.03753602132201195
1717512981513881600,1.055881591796875,0.0006732940673828125,0.05114653334021568,-0.037775710225105286
1717512981523887900,1.065887939453125,0.005366325378417969,0.05611306056380272,-0.03330279514193535
1717512981533894400,1.075894287109375,0.0005626678466796875,0.06110009178519249,-0.03821882605552673
1717512981543901000,1.08590087890625,0.0005474090576171875,0.061295416206121445,-0.03373897075653076
1717512981553907500,1.095907470703125,0.00524139404296875,0.04736170172691345,-0.04335585981607437
1717512981563914000,1.1059140625,0.005148887634277344,0.05239136144518852,-0.03868666663765907
1717512981573920500,1.11592041015625,0.00034999847412109375,0.06204581633210182,-0.03409528732299805
1717512981583927000,1.125927001953125,0.005047798156738281,0.0621221698820591,-0.043706223368644714
1717512981593933600,1.13593359375,0.00025081634521484375,0.052780069410800934,-0.03903118893504143
1717512981603940000,1.145940185546875,0.0002422332763671875,0.0483022965490818,-0.03914310038089752
1717512981613946600,1.155946533203125,0.0049419403076171875,0.053316328674554825,-0.039252690970897675
1717512981623953200,1.165953125,0.00014591217041015625,0.05835007503628731,-0.04417230188846588
1717512981633959700,1.175959716796875,-0.009278297424316406,0.05848807469010353,-0.039592720568180084
1717512981643966200,1.18596630859375,0.00499725341796875,0.05391519144177437,-0.044507063925266266
1717512981653972700,1.19597265625,0.0002002716064453125,0.05412711575627327,-0.03531653806567192
1717512981663979000,1.20597900390625,0.0001926422119140625,0.05904412642121315,-0.045010313391685486
1717512981673985500,1.215985595703125,0.0001850128173828125,0.05917058885097504,-0.03570812940597534
1717512981683992000,1.225991943359375,0.009593963623046875,0.059294987469911575,-0.04058394208550453
1717512981693998600,1.23599853515625,-0.009405136108398438,0.05481196194887161,-0.04066947102546692
1717512981704005000,1.246005126953125,0.000164031982421875,0.050300393253564835,-0.03614820912480354
1717512981714011600,1.25601171875,0.000156402587890625,0.06469845026731491,-0.045828498899936676
1717512981724018200,1.26601806640625,0.000148773193359375,0.055416807532310486,-0.04122165963053703
1717512981734024700,1.276024658203125,0.0048503875732421875,0.05560377240180969,-0.04600510746240616
1717512981744031200,1.28603125,0.004764556884765625,0.0653080865740776,-0.04610349237918854
1717512981754037800,1.296037841796875,-0.00002765655517578125,0.05591306462883949,-0.046200644224882126
1717512981764044300,1.306044189453125,-0.00003147125244140625,0.06090368703007698,-0.03677571937441826
1717512981774050800,1.31605078125,0.004673957824707031,0.05629068613052368,-0.046445511281490326
1717512981784057300,1.326057373046875,0.004591941833496094,0.06117173656821251,-0.032307494431734085
1717512981794064000,1.33606396484375,-0.0001964569091796875,0.06126285344362259,-0.0419480986893177
1717512981804070400,1.3460703125,-0.0001964569091796875,0.051935262978076935,-0.046719420701265335
1717512981814076700,1.35607666015625,-0.004906654357910156,0.05699221417307854,-0.03738906979560852
1717512981824083200,1.366083251953125,-0.0001201629638671875,0.057152993977069855,-0.04233960434794426
1717512981834089700,1.37608984375,0.00458526611328125,0.06212295591831207,-0.04239576682448387
1717512981844096000,1.386095947265625,-0.00020313262939453125,0.06219823658466339,-0.04255424812436104
1717512981854102500,1.3961025390625,-0.0002040863037109375,0.06237558647990227,-0.03800187632441521
1717512981864109000,1.406109130859375,-0.0002040863037109375,0.053029485046863556,-0.03823358193039894
1717512981874115600,1.416115478515625,-0.004913330078125,0.05796494707465172,-0.0431700125336647
1717512981884121900,1.426121826171875,0.004582405090332031,0.05810955911874771,-0.04802415147423744
1717512981894128400,1.43612841796875,-0.0049152374267578125,0.058251768350601196,-0.043276939541101456
1717512981904135000,1.446135009765625,-0.0048370361328125,0.05368300899863243,-0.04331743344664574
1717512981914141400,1.456141357421875,-0.004759788513183594,0.0633162409067154,-0.048169467598199844
1717512981924147700,1.466147705078125,-0.0046844482421875,0.06337164342403412,-0.03871120139956474
1717512981934154200,1.476154296875,0.004807472229003906,0.05400894582271576,-0.04834820702672005
1717512981944160800,1.486160888671875,0.004723548889160156,0.06834527850151062,-0.04359554871916771
1717512981954167000,1.4961669921875,0.004641532897949219,0.058899760246276855,-0.03892248123884201
1717512981964173600,1.506173583984375,0.0045604705810546875,0.05913213640451431,-0.04855634644627571
1717512981974180000,1.51618017578125,-0.00022792816162109375,0.06396599113941193,-0.04390385374426842
1717512981984186600,1.5261865234375,0.009189605712890625,0.05930209904909134,-0.03922564163804054
1717512981994193000,1.53619287109375,0.0043239593505859375,0.06413315236568451,-0.03943726047873497
1717512982004199400,1.546199462890625,-0.00046062469482421875,0.06888371706008911,-0.04435395821928978
1717512982014206000,1.5562060546875,-0.00045680999755859375,0.06884650886058807,-0.04448011517524719
1717512982024212500,1.56621240234375,-0.005161285400390625,0.06410132348537445,-0.04920950159430504
1717512982034218800,1.57621875,-0.00036907196044921875,0.06874915212392807,-0.044546131044626236
1717512982044225300,1.586225341796875,0.0043430328369140625,0.06861092150211334,-0.03525188937783241
1717512982054231800,1.596231689453125,-0.0004405975341796875,0.06847511231899261,-0.045050591230392456
1717512982064238000,1.606238037109375,-0.005145072937011719,0.05892428755760193,-0.040456559509038925
1717512982074244600,1.61624462890625,-0.00035381317138671875,0.06836704909801483,-0.040647685527801514
1717512982084251100,1.626251220703125,0.0043582916259765625,0.06352663040161133,-0.04554423317313194
1717512982094257700,1.636257568359375,0.004282951354980469,0.0634755939245224,-0.04554769769310951
1717512982104264000,1.646263916015625,-0.000499725341796875,0.06342542171478271,-0.04094577580690384
1717512982114270500,1.6562705078125,-0.0052032470703125,0.05866740271449089,-0.05054597556591034
1717512982124277000,1.666277099609375,-0.00511932373046875,0.06340596079826355,-0.041152145713567734
1717512982134283500,1.676283447265625,0.009088516235351562,0.05854500085115433,-0.041228435933589935
1717512982144289800,1.686289794921875,-0.0004825592041015625,0.053765084594488144,-0.04140673205256462
1717512982154296300,1.69629638671875,-0.00047779083251953125,0.05848202481865883,-0.0416853167116642
1717512982164302800,1.706302734375,0.0042362213134765625,0.06312038004398346,-0.041856005787849426
1717512982174309400,1.716309326171875,-0.0005445480346679688,0.06286967545747757,-0.0419209860265255
1717512982184316000,1.72631591796875,0.004170417785644531,0.05801771953701973,-0.04679637402296066
1717512982194322400,1.736322509765625,0.0040988922119140625,0.06726917624473572,-0.042173318564891815
1717512982204329000,1.746328857421875,0.004027366638183594,0.06224065646529198,-0.05164986848831177
1717512982214335500,1.75633544921875,-0.000751495361328125,0.057399310171604156,-0.042134497314691544
1717512982224342000,1.766342041015625,0.003966331481933594,0.05734715610742569,-0.04690311849117279
1717512982234348300,1.776348388671875,0.0038976669311523438,0.06671317666769028,-0.04698732867836952
1717512982244354800,1.786354736328125,0.0038299560546875,0.061797209084033966,-0.051675088703632355
1717512982254361300,1.796361328125,-0.0009441375732421875,0.05675673857331276,-0.042159345000982285
1717512982264367900,1.806367919921875,-0.0009307861328125,0.05190345644950867,-0.04221900552511215
1717512982274374400,1.81637451171875,-0.0009183883666992188,0.05654824525117874,-0.037465810775756836
1717512982284381000,1.826380859375,0.0038022994995117188,0.056407030671834946,-0.04702090099453926
1717512982294387500,1.836387451171875,-0.005681037902832031,0.056268177926540375,-0.0517081543803215
1717512982304394000,1.84639404296875,-0.0008792877197265625,0.05131976678967476,-0.04690009355545044
1717512982314400500,1.856400390625,-0.0008678436279296875,0.05126568302512169,-0.04677750542759895
1717512982324407000,1.866406982421875,0.0038537979125976562,0.06052651256322861,-0.04676063731312752
1717512982334413600,1.87641357421875,-0.0009212493896484375,0.05550721287727356,-0.046744078397750854
1717512982344420000,1.886420166015625,-0.00090789794921875,0.05528006702661514,-0.05143599212169647
1717512982354426600,1.896426513671875,0.0038137435913085938,0.059765394777059555,-0.04192434251308441
1717512982364433200,1.90643310546875,-0.0009603500366210938,0.05005008354783058,-0.056010544300079346
1717512982374439700,1.916439697265625,-0.000946044921875,0.059227798134088516,-0.04161040484905243
1717512982384446000,1.926446044921875,-0.0009326934814453125,0.05904189497232437,-0.03697074204683304
1717512982394452500,1.936452392578125,-0.000919342041015625,0.05394396185874939,-0.041825614869594574
1717512982404459000,1.946458984375,0.0038022994995117188,0.06305679678916931,-0.041787728667259216
1717512982414465500,1.956465576171875,-0.0009717941284179688,0.05789195001125336,-0.046459101140499115
1717512982424472000,1.96647216796875,-0.000957489013671875,0.057625140994787216,-0.04173913970589638
1717512982434478600,1.976478515625,0.003765106201171875,0.052550822496414185,-0.04651462286710739
1717512982444485000,1.986485107421875,-0.0010089874267578125,0.057081542909145355,-0.051107257604599
1717512982454491600,1.99649169921875,0.0084228515625,0.052016180008649826,-0.046205729246139526
1717512982464498200,2.006498291015625,-0.00113677978515625,0.05645253509283066,-0.05540888011455536
1717512982474504700,2.016504638671875,0.0035886764526367188,0.05139772966504097,-0.041018951684236526
1717512982484511200,2.02651123046875,-0.0011816024780273438,0.051135774701833725,-0.05041186138987541
1717512982494517800,2.036517822265625,-0.001163482666015625,0.05558677017688751,-0.04071057587862015
1717512982504524300,2.046524169921875,0.008271217346191406,0.05996357649564743,-0.04529678821563721
1717512982514530800,2.05653076171875,0.0034227371215820312,0.05955875292420387,-0.04520079866051674
1717512982524537000,2.066537109375,-0.0013446807861328125,0.05434897169470787,-0.04510737583041191
1717512982534543600,2.076543701171875,0.008091926574707031,0.04932919517159462,-0.040203191339969635
1717512982544550100,2.086550048828125,-0.0061702728271484375,0.04428982362151146,-0.04960982874035835
1717512982554556700,2.096556640625,0.008056640625,0.04875161126255989,-0.04473390430212021
1717512982564563200,2.106563232421875,0.00321197509765625,0.05313904210925102,-0.04454459622502327
1717512982574569700,2.11656982421875,-0.0015516281127929688,0.05274474248290062,-0.04906706511974335
1717512982584576300,2.126576171875,-0.0015277862548828125,0.05235700309276581,-0.04420026019215584
1717512982594582800,2.136582763671875,-0.0015039443969726562,0.04255859926342964,-0.034706488251686096
1717512982604589300,2.14658935546875,-0.010897636413574219,0.05165454372763634,-0.039496250450611115
1717512982614595800,2.156595947265625,-0.001300811767578125,0.05128495767712593,-0.048811525106430054
1717512982624602400,2.166602294921875,-0.0012807846069335938,0.04610971733927727,-0.04384628310799599
1717512982634609000,2.17660888671875,0.0034475326538085938,0.041123997420072556,-0.043775685131549835
1717512982644615400,2.186615478515625,0.0033884048461914062,0.05505561828613281,-0.03889337554574013
1717512982654622000,2.1966220703125,0.003330230712890625,0.04040026292204857,-0.043613456189632416
1717512982664628500,2.20662841796875,-0.006144523620605469,0.049532074481248856,-0.04333921894431114
1717512982674634800,2.216634765625,-0.0060443878173828125,0.04438594728708267,-0.04798523336648941
1717512982684641300,2.226641357421875,0.00347137451171875,0.05345131456851959,-0.04303283244371414
1717512982694647800,2.236647705078125,-0.0012969970703125,0.04353124648332596,-0.04276886582374573
1717512982704654300,2.246654296875,0.0034313201904296875,0.043193694204092026,-0.04261258244514465
1717512982714660900,2.256660888671875,-0.0013360977172851562,0.03815317153930664,-0.04256219416856766
1717512982724667400,2.26666748046875,-0.006024360656738281,0.04732244089245796,-0.04240939021110535
1717512982734674000,2.276673828125,-0.001216888427734375,0.037504442036151886,-0.042258597910404205
1717512982744680400,2.286680419921875,-0.0011997222900390625,0.046787768602371216,-0.042110878974199295
1717512982754687000,2.29668701171875,-0.0011816024780273438,0.051104456186294556,-0.04196508228778839
1717512982764693500,2.306693603515625,-0.0011625289916992188,0.04112016782164574,-0.04642762988805771
1717512982774700000,2.316699951171875,0.0035648345947265625,0.04542802274227142,-0.041501328349113464
1717512982784706600,2.32670654296875,-0.005913734436035156,0.040246881544589996,-0.03655388578772545
1717512982794713000,2.336713134765625,0.00830841064453125,0.044672586023807526,-0.0411066859960556
1717512982804719600,2.3467197265625,-0.0012493133544921875,0.044315919280052185,-0.04097830504179001
1717512982814726000,2.356725830078125,-0.0012302398681640625,0.039256587624549866,-0.04074880853295326
1717512982824732400,2.366732421875,0.003498077392578125,0.04349222779273987,-0.0358145572245121
1717512982834739000,2.376739013671875,0.0034379959106445312,0.038343340158462524,-0.03577444329857826
1717512982844745500,2.386745361328125,-0.006038665771484375,0.04269743338227272,-0.04033975675702095
1717512982854752000,2.396751953125,-0.0012311935424804688,0.04227037355303764,-0.04012099280953407
1717512982864758500,2.406758544921875,-0.0012121200561523438,0.032433200627565384,-0.0351966954767704
1717512982874765000,2.41676513671875,-0.001194000244140625,0.036989059299230576,-0.03987555205821991
1717512982884771600,2.426771484375,-0.0011749267578125,0.031845226883888245,-0.03966396674513817
1717512982894778000,2.436778076171875,0.003551483154296875,0.041016191244125366,-0.039456531405448914
1717512982904784600,2.44678466796875,-0.001216888427734375,0.045222435146570206,-0.03925258666276932
1717512982914791200,2.456791259765625,0.0035104751586914062,0.03533603623509407,-0.04376066103577614
1717512982924797700,2.466797607421875,0.0034503936767578125,0.039740197360515594,-0.04348502308130264
1717512982934804200,2.47680419921875,0.003391265869140625,0.039362337440252304,-0.03850540891289711
1717512982944810800,2.486810791015625,0.00333404541015625,0.029470298439264297,-0.038420043885707855
1717512982954817300,2.4968173828125,-0.0014324188232421875,0.038680776953697205,-0.038232848048210144
1717512982964823600,2.506823486328125,-0.010828018188476562,0.04302914813160896,-0.03804878517985344
1717512982974830000,2.516830078125,-0.001232147216796875,0.04259643331170082,-0.042576394975185394
1717512982984836600,2.526836669921875,-0.0012121200561523438,0.03265044838190079,-0.037612028419971466
1717512982994843100,2.536843017578125,-0.0011930465698242188,0.03228742629289627,-0.032833684235811234
1717512983004849700,2.546849609375,-0.00588226318359375,0.04134764522314072,-0.03263640031218529
1717512983014856200,2.556856201171875,-0.0010776519775390625,0.03623431921005249,-0.037151020020246506
1717512983024862700,2.56686279296875,0.0036468505859375,0.03591480106115341,-0.03698507696390152
1717512983034869200,2.576869140625,-0.0011234283447265625,0.030788734555244446,-0.03692518547177315
1717512983044875800,2.586875732421875,-0.0058155059814453125,0.030559971928596497,-0.036763038486242294
1717512983054882300,2.59688232421875,0.0036973953247070312,0.030231744050979614,-0.03660360351204872
1717512983064888800,2.606888916015625,-0.0010738372802734375,0.029908984899520874,-0.036446839570999146
1717512983074895400,2.616895263671875,-0.001056671142578125,0.03900879621505737,-0.03148083761334419
1717512983084902000,2.62690185546875,0.0036687850952148438,0.024413928389549255,-0.040827371180057526
1717512983094908400,2.636908447265625,-0.005810737609863281,0.03831390291452408,-0.03589166700839996
1717512983104914700,2.646914794921875,-0.0010061264038085938,0.03314780443906784,-0.04035215824842453
1717512983114921200,2.656921142578125,0.0037183761596679688,0.028067775070667267,-0.035425104200839996
1717512983124927700,2.666927734375,0.0036554336547851562,0.027677759528160095,-0.02576761692762375
1717512983134934300,2.676934326171875,-0.0011148452758789062,0.02268892526626587,-0.030396895483136177
1717512983144940800,2.68694091796875,0.0036115646362304688,0.022388547658920288,-0.030240435153245926
1717512983154947300,2.696947265625,-0.0011577606201171875,0.026801757514476776,-0.03479519486427307
1717512983164953900,2.706953857421875,0.0035696029663085938,0.026432812213897705,-0.034565459936857224
1717512983174960400,2.71696044921875,-0.0011997222900390625,0.021361418068408966,-0.03444284200668335
1717512983184967000,2.726966796875,-0.0011806488037109375,0.025791719555854797,-0.0341157391667366
1717512983194973400,2.736973388671875,-0.0011615753173828125,0.020730987191200256,-0.024480178952217102
1717512983204980000,2.74697998046875,-0.0011444091796875,0.025275051593780518,-0.029234278947114944
1717512983214986500,2.756986572265625,-0.0058345794677734375,0.029640115797519684,-0.029097292572259903
1717512983224992800,2.76699267578125,0.0036792755126953125,0.029223822057247162,-0.028962600976228714
1717512983234999300,2.776999267578125,-0.0010919570922851562,0.02410590648651123,-0.028829433023929596
1717512983245005800,2.787005859375,-0.0010738372802734375,0.023678570985794067,-0.02869924157857895
1717512983255012400,2.797012451171875,0.0036516189575195312,0.028070271015167236,-0.02857048809528351
1717512983265018600,2.8070185546875,-0.0011186599731445312,0.02297152578830719,-0.03315324708819389
1717512983275025200,2.817025146484375,-0.0011005401611328125,0.027374938130378723,-0.0282424446195364
1717512983285031700,2.82703173828125,-0.0010833740234375,0.026996366679668427,-0.032830700278282166
1717512983295038200,2.8370380859375,-0.005774497985839844,0.02662409096956253,-0.02792530506849289
1717512983305044500,2.84704443359375,-0.0056781768798828125,0.02144620567560196,-0.03251810744404793
1717512983315051000,2.857051025390625,0.0038328170776367188,0.025875024497509003,-0.03232654929161072
1717512983325057500,2.8670576171875,-0.00093841552734375,0.020606286823749542,-0.03684679791331291
1717512983335063800,2.877063720703125,-0.00092315673828125,0.029654473066329956,-0.031873755156993866
1717512983345070300,2.8870703125,0.0037994384765625,0.02452925592660904,-0.0316929928958416
1717512983355076900,2.897076904296875,0.0037364959716796875,0.019386187195777893,-0.026806665584445
1717512983365083400,2.90708349609375,-0.0010356903076171875,0.02384929358959198,-0.036024320870637894
1717512983375089700,2.917089599609375,-0.005726814270019531,0.023426130414009094,-0.03577443212270737
1717512983385096200,2.92709619140625,0.0037851333618164062,0.023113347589969635,-0.026110727339982986
1717512983395102700,2.937102783203125,0.0037221908569335938,0.01799391210079193,-0.025922024622559547
1717512983405109200,2.947109130859375,-0.0010480880737304688,0.027085594832897186,-0.030548345297574997
1717512983415115500,2.957115478515625,0.0036783218383789062,0.021899864077568054,-0.03038979507982731
1717512983425122000,2.9671220703125,0.008325576782226562,0.016800478100776672,-0.025526126846671104
1717512983435128600,2.977128662109375,0.00818634033203125,0.016494832932949066,-0.030055824667215347
1717512983445134800,2.987134765625,-0.0013685226440429688,0.02100607007741928,-0.02519693784415722
1717512983455141400,2.997141357421875,-0.006053924560546875,0.01592172682285309,-0.02983541414141655
1717512983465148000,3.00714794921875,-0.0059528350830078125,0.01563071459531784,-0.029687989503145218
1717512983475154400,3.017154541015625,-0.0011453628540039062,0.01534455269575119,-0.034148357808589935
1717512983485160700,3.02716064453125,-0.001125335693359375,0.010251201689243317,-0.033826638013124466
1717512983495167200,3.037167236328125,0.008310317993164062,0.01476326584815979,-0.02890412136912346
1717512983505173800,3.047173828125,-0.0012454986572265625,0.02390873432159424,-0.028772257268428802
1717512983515180300,3.05718017578125,0.0034847259521484375,0.01396409422159195,-0.023934004828333855
1717512983525186600,3.0671865234375,-0.0012807846069335938,0.018311001360416412,-0.03330220282077789
1717512983535193000,3.077193115234375,0.0034503936767578125,0.008459575474262238,-0.028389345854520798
1717512983545199600,3.08719970703125,-0.001316070556640625,0.013001374900341034,-0.02816370688378811
1717512983555206100,3.0972060546875,-0.0012941360473632812,0.02217607945203781,-0.027941837906837463
1717512983565212700,3.107212646484375,0.003437042236328125,0.012260191142559052,-0.027826957404613495
1717512983575219200,3.11721923828125,0.00337982177734375,0.016738735139369965,-0.03242173045873642
1717512983585225700,3.127225830078125,-0.0013837814331054688,0.01633065938949585,-0.027420349419116974
1717512983595232300,3.137232177734375,-0.006069183349609375,0.016032740473747253,-0.02250145748257637
1717512983605238800,3.14723876953125,-0.0012598037719726562,-0.003094710409641266,-0.031894501298666
1717512983615245300,3.157245361328125,-0.0012378692626953125,0.006245054304599762,-0.02690105140209198
1717512983625251800,3.167251953125,0.0034914016723632812,0.006115227937698364,-0.03151129186153412
1717512983635258400,3.17725830078125,0.008141517639160156,0.015404626727104187,-0.021816525608301163
1717512983645265000,3.187264892578125,-0.0014104843139648438,0.005601666867733002,-0.021699663251638412
1717512983655271400,3.197271484375,0.003322601318359375,0.005379393696784973,-0.0262924637645483
1717512983665278000,3.20727783203125,0.0032682418823242188,0.009869292378425598,-0.026101019233465195
1717512983675284200,3.2172841796875,0.0032148361206054688,0.0001585632562637329,-0.025912776589393616
1717512983685290800,3.227290771484375,0.003162384033203125,0.00944405049085617,-0.01631048135459423
1717512983695297300,3.23729736328125,0.0031108856201171875,0.0044488683342933655,-0.02089165523648262
1717512983705303800,3.2473037109375,-0.0016489028930664062,0.004245653748512268,-0.015978390350937843
1717512983715310300,3.257310302734375,-0.0016202926635742188,0.008754417300224304,-0.020667485892772675
1717512983725316900,3.26731689453125,0.0031175613403320312,0.008376047015190125,-0.025279350578784943
1717512983735323400,3.277323486328125,0.0030660629272460938,0.012815967202186584,-0.020292984321713448
1717512983745330000,3.287329833984375,-0.00640106201171875,0.007764682173728943,-0.029618803411722183
1717512983755336400,3.29733642578125,-0.006293296813964844,0.007506050169467926,-0.02466432750225067
1717512983765343000,3.307343017578125,0.0032300949096679688,0.0025432631373405457,-0.024500107392668724
1717512983775349500,3.317349609375,-0.006239891052246094,0.007080361247062683,-0.024338632822036743
1717512983785356000,3.32735595703125,-0.00142669677734375,0.011541709303855896,-0.01957545056939125
1717512983795362600,3.337362548828125,-0.0014019012451171875,0.011220239102840424,-0.029016535729169846
1717512983805369000,3.347369140625,-0.001377105712890625,0.010800853371620178,-0.019362619146704674
1717512983815375600,3.357375732421875,-0.0013523101806640625,0.00567985326051712,-0.023995408788323402
1717512983825382000,3.3673818359375,-0.0013284683227539062,0.01016467809677124,-0.02384239435195923
1717512983835388400,3.377388427734375,0.0034036636352539062,0.014471620321273804,-0.028399594128131866
1717512983845395000,3.38739501953125,-0.006069183349609375,0.009392842650413513,-0.01875505968928337
1717512983855401500,3.3974013671875,0.0034503936767578125,0.01381576806306839,-0.018689418211579323
1717512983865408000,3.407407958984375,-0.0013141632080078125,0.00393589586019516,-0.023333486169576645
1717512983875414500,3.41741455078125,-0.0012912750244140625,0.003741160035133362,-0.023191560059785843
1717512983885421000,3.427421142578125,-0.005978584289550781,0.008361540734767914,-0.023052005097270012
1717512983895427600,3.437427490234375,-0.0011682510375976562,-0.0014274269342422485,-0.01820618286728859
1717512983905434000,3.44743408203125,-0.0011472702026367188,0.0030725374817848206,-0.022858329117298126
1717512983915440600,3.457440673828125,-0.0011262893676757812,0.007497668266296387,-0.022723380476236343
1717512983925447200,3.467447265625,0.0036029815673828125,-0.002276904881000519,-0.022591661661863327
1717512983935453700,3.47745361328125,-0.001163482666015625,0.006945803761482239,-0.013044952414929867
1717512983945460200,3.487460205078125,-0.0011425018310546875,0.006597608327865601,-0.017783155664801598
1717512983955466800,3.497466796875,0.0035867691040039062,0.006255216896533966,-0.02233913540840149
1717512983965473000,3.50747314453125,-0.0011796951293945312,0.0012099295854568481,-0.02221386507153511
1717512983975479600,3.5174794921875,0.0035495758056640625,0.0010607540607452393,-0.017381101846694946
1717512983985486000,3.527486083984375,-0.001216888427734375,0.01033126562833786,-0.022046087309718132
1717512983995492600,3.53749267578125,-0.0011949539184570312,0.005218036472797394,-0.021925725042819977
1717512984005499100,3.5474990234375,0.0035352706909179688,0.0001900196075439453,-0.02180738002061844
1717512984015505700,3.557505615234375,-0.005938529968261719,-0.004754029214382172,-0.021690016612410545
1717512984025512200,3.56751220703125,-0.0011301040649414062,0.004613369703292847,-0.021574608981609344
1717512984035518700,3.577518798828125,0.0035991668701171875,-0.0004045814275741577,-0.0260674599558115
1717512984045525200,3.587525146484375,0.0035409927368164062,-0.005338728427886963,-0.016461912542581558
1717512984055531800,3.59753173828125,0.0034837722778320312,-0.0007736310362815857,-0.021143263205885887
1717512984065538300,3.607538330078125,0.0034275054931640625,0.0037153810262680054,-0.016226131469011307
1717512984075544800,3.617544921875,0.0033721923828125,0.0034209713339805603,-0.016099561005830765
1717512984085551400,3.62755126953125,0.008026123046875,0.003131464123725891,-0.020683711394667625
1717512984095558000,3.637557861328125,-0.0015230178833007812,-0.0018618255853652954,-0.01587754301726818
1717512984105564400,3.647564453125,0.0032129287719726562,0.0026452988386154175,-0.015756811946630478
1717512984115570700,3.65757080078125,-0.006256103515625,0.0023687034845352173,-0.01563810370862484
1717512984125577200,3.6675771484375,-0.0061511993408203125,-0.002508610486984253,-0.020333250984549522
1717512984135583700,3.677583740234375,0.0033702850341796875,-0.0074079036712646484,-0.015429677441716194
1717512984145590300,3.68759033203125,0.0033159255981445312,0.0019004270434379578,-0.015315404161810875
1717512984155596800,3.6975966796875,-0.0061550140380859375,-0.003072179853916168,-0.015203043818473816
1717512984165603300,3.707603271484375,0.0033664703369140625,-0.00796208530664444,-0.019802190363407135
1717512984175609900,3.71760986328125,0.008020401000976562,0.006063878536224365,-0.019719362258911133
1717512984185616400,3.727616455078125,0.0031795501708984375,-0.0036867335438728333,-0.019636891782283783
1717512984195623000,3.737622802734375,-0.0015802383422851562,0.000850774347782135,-0.014848239719867706
1717512984205629400,3.74762939453125,-0.006259918212890625,-0.004207819700241089,-0.01945333369076252
1717512984215636000,3.757635986328125,-0.006154060363769531,0.0003385618329048157,-0.028792500495910645
1717512984225642500,3.767642578125,-0.006049156188964844,-0.009316816926002502,-0.019039412960410118
1717512984235649000,3.77764892578125,-0.005946159362792969,0.00002329796552658081,-0.014259690418839455
1717512984245655600,3.787655517578125,-0.0011358261108398438,-0.00031290948390960693,-0.018977884203195572
1717512984255661800,3.797661865234375,0.00359344482421875,-0.005248844623565674,-0.01880558207631111
1717512984265668400,3.80766845703125,0.0035352706909179688,-0.005393914878368378,-0.018739426508545876
1717512984275675000,3.8176748046875,-0.0012302398681640625,-0.0008279755711555481,-0.01857111044228077
1717512984285681400,3.827681396484375,0.00350189208984375,-0.0011498034000396729,-0.01840454898774624
1717512984295688000,3.83768798828125,-0.001262664794921875,-0.0014662742614746094,-0.01824077218770981
1717512984305694500,3.847694580078125,0.0034685134887695312,-0.0063830092549324036,-0.01808079704642296
1717512984315701000,3.857700927734375,-0.0012950897216796875,-0.0019034668803215027,-0.013212757185101509
1717512984325707500,3.86770751953125,-0.0012712478637695312,-0.011521309614181519,-0.013238795101642609
1717512984335714000,3.877714111328125,-0.0012483596801757812,-0.0021446719765663147,-0.008556876331567764
1717512984345720600,3.887720458984375,0.003482818603515625,-0.0023413076996803284,-0.01797444187104702
1717512984355727000,3.89772705078125,-0.00128173828125,-0.0025346651673316956,-0.02252645418047905
1717512984365733600,3.907733642578125,-0.0059661865234375,-0.012245267629623413,-0.012980084866285324
1717512984375740200,3.917740234375,0.0035524368286132812,-0.0028565824031829834,-0.012907825410366058
1717512984385746700,3.92774658203125,-0.00121307373046875,-0.007749959826469421,-0.017544295638799667
1717512984395753200,3.937753173828125,-0.001190185546875,-0.012665040791034698,-0.017394894734025
1717512984405759500,3.947759521484375,-0.00116729736328125,-0.012789614498615265,-0.017247987911105156
1717512984415766000,3.95776611328125,-0.0058536529541015625,-0.0034949183464050293,-0.02181212604045868
1717512984425772500,3.9677724609375,0.008373260498046875,-0.003772333264350891,-0.021488338708877563
1717512984435779000,3.977779052734375,-0.0011806488037109375,-0.003942087292671204,-0.021171044558286667
1717512984445785600,3.98778564453125,-0.0011577606201171875,-0.008920669555664062,-0.016355890780687332
1717512984455792000,3.997792236328125,0.0035724639892578125,-0.013712994754314423,-0.011620992794632912
1717512984465798700,4.007798583984375,-0.0011920928955078125,-0.00440293550491333,-0.01617567054927349
1717512984475805200,4.01780517578125,-0.0011701583862304688,-0.013979166746139526,-0.016152380034327507
1717512984485811700,4.027811767578125,-0.0011491775512695312,-0.00927000492811203,-0.016129478812217712
1717512984495818200,4.037818359375,0.0035800933837890625,-0.00934792309999466,-0.016003690659999847
1717512984505824800,4.04782470703125,0.0035219192504882812,-0.009424544870853424,-0.011171402409672737
1717512984515831300,4.057831298828125,0.0034656524658203125,-0.0048947930335998535,-0.006420759484171867
1717512984525837800,4.067837890625,-0.0012989044189453125,-0.005045637488365173,-0.015873990952968597
1717512984535844400,4.07784423828125,-0.005982398986816406,-0.005297474563121796,-0.010941712185740471
1717512984545850600,4.0878505859375,0.0035371780395507812,-0.005544647574424744,-0.015609901398420334
1717512984555857200,4.097857177734375,-0.00122833251953125,-0.015101857483386993,-0.010784199461340904
1717512984565863700,4.10786376953125,0.0035028457641601562,-0.0009565725922584534,-0.010746415704488754
1717512984575870200,4.1178701171875,0.003448486328125,-0.010693766176700592,-0.020128685981035233
1717512984585876700,4.127876708984375,0.0033931732177734375,-0.01074797660112381,-0.015330955386161804
1717512984595883300,4.13788330078125,0.0033397674560546875,-0.0014875978231430054,-0.010614300146698952
1717512984605889800,4.147889892578125,-0.0014209747314453125,-0.006507113575935364,-0.015289079397916794
1717512984615896300,4.157896240234375,0.003314971923828125,-0.01144273579120636,-0.015072958543896675
1717512984625902800,4.16790283203125,-0.006154060363769531,-0.01158750057220459,-0.010255115106701851
1717512984635909400,4.177909423828125,-0.001338958740234375,-0.011730089783668518,-0.010227290913462639
1717512984645916000,4.187916015625,-0.0013151168823242188,-0.011767029762268066,-0.014908533543348312
1717512984655922400,4.19792236328125,0.0034170150756835938,-0.007094763219356537,-0.014803154394030571
1717512984665929000,4.207928955078125,-0.0013446807861328125,-0.012020841240882874,-0.019408132880926132
1717512984675935500,4.217935546875,-0.0013189315795898438,-0.012156225740909576,-0.01451917178928852
1717512984685942000,4.22794189453125,0.0034151077270507812,-0.007580757141113281,-0.014420291408896446
1717512984695948300,4.2379482421875,0.0033597946166992188,-0.012395471334457397,-0.014426333829760551
1717512984705954800,4.247954833984375,0.008016586303710938,-0.01723320782184601,-0.019037604331970215
1717512984715961300,4.25796142578125,-0.0015325546264648438,-0.012469619512557983,-0.009445099160075188
1717512984725968000,4.2679677734375,0.0032033920288085938,-0.007785670459270477,-0.009430795907974243
1717512984735974400,4.277974365234375,-0.0015544891357421875,-0.00799165666103363,-0.009416734799742699
1717512984745981000,4.28798095703125,-0.0015249252319335938,-0.012902557849884033,-0.014007104560732841
1717512984755987500,4.297987548828125,-0.001495361328125,-0.01773160696029663,-0.009103771299123764
1717512984765994000,4.307993896484375,0.0032415390014648438,-0.00835488736629486,-0.013804906979203224
1717512984776000500,4.31800048828125,0.0031900405883789062,-0.013156719505786896,-0.008906083181500435
1717512984786007000,4.328007080078125,-0.001567840576171875,-0.017981790006160736,-0.008900782093405724
1717512984796013600,4.338013671875,-0.0015382766723632812,-0.013309009373188019,-0.008894430473446846
1717512984806020000,4.34802001953125,-0.0015096664428710938,-0.008714340627193451,-0.018409794196486473
1717512984816026600,4.358026611328125,0.0032281875610351562,-0.00890485942363739,-0.013537507504224777
1717512984826033200,4.368033203125,-0.001529693603515625,-0.013904079794883728,-0.00864315778017044
1717512984836039700,4.378039794921875,-0.0015001296997070312,-0.014008104801177979,-0.013350855559110641
1717512984846046000,4.3880458984375,0.0032358169555664062,-0.009298533201217651,-0.017876815050840378
1717512984856052500,4.398052490234375,-0.0015249252319335938,-0.009376056492328644,-0.01772201992571354
1717512984866059000,4.40805908203125,0.007921218872070312,-0.014263898134231567,-0.012860061600804329
1717512984876065500,4.4180654296875,0.0030832290649414062,-0.009653344750404358,-0.0034749656915664673
1717512984886072000,4.428072021484375,0.0077419281005859375,-0.019142143428325653,-0.00826880894601345
1717512984896078600,4.43807861328125,-0.006508827209472656,-0.009741432964801788,-0.008273009210824966
1717512984906085000,4.448085205078125,-0.0016880035400390625,-0.01933203637599945,-0.012986892834305763
1717512984916091600,4.458091552734375,0.0030527114868164062,-0.019345611333847046,-0.0033931415528059006
1717512984926098200,4.46809814453125,-0.0017032623291015625,-0.00994151085615158,-0.017501117661595345
1717512984936104700,4.478104736328125,0.0030364990234375,-0.010008320212364197,-0.012540733441710472
1717512984946111200,4.488111328125,-0.0017185211181640625,-0.014885902404785156,-0.007766295224428177
1717512984956117800,4.49811767578125,-0.006394386291503906,-0.01497359573841095,-0.012385355308651924
1717512984966124300,4.508124267578125,0.0031328201293945312,-0.015060089528560638,-0.01232326589524746
1717512984976130800,4.518130859375,0.0030851364135742188,-0.005830951035022736,-0.012261055409908295
1717512984986137000,4.52813720703125,-0.00167083740234375,-0.020195089280605316,-0.012095453217625618
1717512984996143600,4.5381435546875,0.0030689239501953125,-0.015485435724258423,-0.011932611465454102
1717512985006150100,4.548150146484375,-0.0016889572143554688,-0.015459597110748291,-0.0071671586483716965
1717512985016156700,4.55815673828125,0.0030508041381835938,-0.01072586327791214,-0.011796217411756516
1717512985026163200,4.5681630859375,0.0030040740966796875,-0.01559150218963623,-0.011639527976512909
1717512985036169700,4.578169677734375,-0.001750946044921875,-0.010958857834339142,-0.0068801287561655045
1717512985046176300,4.58817626953125,0.00299072265625,-0.006403148174285889,-0.011512812227010727
1717512985056182800,4.598182861328125,0.007651329040527344,-0.011237293481826782,-0.011462962254881859
1717512985066189300,4.608189208984375,0.002819061279296875,-0.01609441637992859,-0.011415116488933563
1717512985076195800,4.61819580078125,0.007483482360839844,-0.0066412463784217834,-0.011263621971011162
1717512985086202400,4.628202392578125,-0.002056121826171875,-0.01618003100156784,-0.011217933148145676
1717512985096209000,4.638208984375,-0.0020208358764648438,-0.02064692974090576,-0.01094215176999569
1717512985106215400,4.64821533203125,-0.0019884109497070312,-0.020226672291755676,-0.006065646186470985
1717512985116222000,4.658221923828125,-0.006663322448730469,-0.01520838588476181,-0.015294097363948822
1717512985126228500,4.668228515625,-0.0018434524536132812,-0.010272480547428131,-0.005638819187879562
1717512985136234800,4.67823486328125,-0.0018138885498046875,-0.01473306119441986,-0.014980010688304901
1717512985146241300,4.6882412109375,0.002925872802734375,-0.019221797585487366,-0.005230262875556946
1717512985156247800,4.698247802734375,-0.0018320083618164062,-0.009406358003616333,-0.005164716392755508
1717512985166254300,4.70825439453125,0.00290679931640625,-0.013983018696308136,-0.014517558738589287
1717512985176260900,4.7182607421875,0.0028581619262695312,-0.009066283702850342,-0.0001739300787448883
1717512985186267400,4.728267333984375,0.0028095245361328125,-0.018253862857818604,-0.009510297328233719
1717512985196274000,4.73827392578125,-0.0019464492797851562,-0.013162113726139069,-0.009377200156450272
1717512985206280400,4.748280517578125,0.0027952194213867188,-0.012967340648174286,-0.009145356714725494
1717512985216287000,4.758286865234375,-0.00196075439453125,-0.01738082617521286,0.0005009546875953674
1717512985226293500,4.76829345703125,0.0027818679809570312,-0.012406915426254272,-0.00885017029941082
1717512985236300000,4.778300048828125,-0.006680488586425781,-0.012224793434143066,-0.003920780494809151
1717512985246306600,4.788306640625,-0.0018606185913085938,-0.002628535032272339,-0.008595123887062073
1717512985256313000,4.79831298828125,0.0028781890869140625,-0.0072153061628341675,-0.003673302009701729
1717512985266319600,4.808319580078125,0.00283050537109375,-0.016536884009838104,-0.008351733908057213
1717512985276326000,4.818325927734375,-0.001926422119140625,-0.006766721606254578,-0.008144674822688103
1717512985286332400,4.82833251953125,-0.011310577392578125,-0.011388152837753296,-0.00793994590640068
1717512985296339000,4.8383388671875,0.0030031204223632812,-0.01583009958267212,-0.012449230998754501
1717512985306345500,4.848345458984375,-0.0017547607421875,-0.006176300346851349,-0.007468260824680328
1717512985316352000,4.85835205078125,0.00298309326171875,-0.015517979860305786,-0.007382025942206383
1717512985326358500,4.868358642578125,0.0029325485229492188,-0.010475441813468933,-0.007298178970813751
1717512985336365000,4.878364990234375,0.0028829574584960938,-0.0008088871836662292,-0.011821981519460678
1717512985346371600,4.88837158203125,-0.0018739700317382812,-0.010241679847240448,-0.0022487808018922806
1717512985356378000,4.898378173828125,0.007573127746582031,-0.0052887797355651855,-0.00214993953704834
1717512985366384600,4.908384521484375,-0.0019712448120117188,-0.0004190206527709961,-0.0068654827773571014
1717512985376391200,4.91839111328125,-0.0019388198852539062,-0.005151510238647461,-0.002086067572236061
1717512985386397700,4.928397705078125,0.0028018951416015625,-0.014513716101646423,-0.00680350698530674
1717512985396404200,4.938404296875,-0.0019540786743164062,-0.009492412209510803,-0.011444978415966034
1717512985406410800,4.94841064453125,-0.001922607421875,-0.009264037013053894,-0.006592612713575363
1717512985416417300,4.958417236328125,-0.0018911361694335938,-0.009039804339408875,-0.011134609580039978
1717512985426423600,4.968423583984375,-0.0018596649169921875,-0.008819639682769775,-0.006079990416765213
1717512985436430000,4.97843017578125,-0.0018291473388671875,-0.003895580768585205,-0.0012146160006523132
1717512985446436600,4.9884365234375,0.002910614013671875,-0.003866523504257202,-0.0011406578123569489
1717512985456443100,4.998443115234375,0.00286102294921875,-0.008443683385848999,-0.005776088684797287
1717512985466449700,5.00844970703125,-0.0066051483154296875,-0.008236370980739594,-0.0009166374802589417
1717512985476456200,5.018456298828125,0.007630348205566406,-0.0034283027052879333,0.0037568025290966034
1717512985486462700,5.028462646484375,0.0027952194213867188,-0.003409743309020996,-0.005670808255672455
1717512985496469200,5.03846923828125,0.0027475357055664062,-0.007997944951057434,-0.005629092454910278
1717512985506475800,5.048475830078125,0.007411003112792969,-0.017322011291980743,-0.0007757321000099182
1717512985516482300,5.058482421875,-0.006836891174316406,-0.007657088339328766,-0.00542106106877327
1717512985526488800,5.06848876953125,0.00269317626953125,-0.007467158138751984,-0.005383651703596115
1717512985536495400,5.078495361328125,-0.006768226623535156,-0.00267665833234787,-0.014661956578493118
1717512985546502000,5.088501953125,-0.0019474029541015625,-0.007279925048351288,-0.009659834206104279
1717512985556508400,5.09850830078125,0.0027923583984375,-0.007099077105522156,-0.00484437495470047
1717512985566514700,5.1085146484375,-0.0019617080688476562,-0.0070248618721961975,-0.004715569317340851
1717512985576521200,5.118521240234375,0.002780914306640625,-0.0022444725036621094,-0.004588831216096878
1717512985586527700,5.12852783203125,-0.0019750595092773438,-0.0068587735295295715,-0.009277626872062683
1717512985596534300,5.1385341796875,-0.0019407272338867188,-0.0020829737186431885,0.00034032389521598816
1717512985606540800,5.148540771484375,0.00279998779296875,-0.002095721662044525,0.0002781301736831665
1717512985616547300,5.15854736328125,0.0027532577514648438,-0.002005338668823242,-0.009098023176193237
1717512985626553900,5.168553955078125,0.0027074813842773438,-0.0066263675689697266,0.0005156174302101135
1717512985636560400,5.178560302734375,0.00266265869140625,0.0029548034071922302,0.0005513988435268402
1717512985646567000,5.18856689453125,0.00261688232421875,-0.0017501190304756165,-0.0042257532477378845
1717512985656573400,5.198573486328125,0.0025739669799804688,-0.015897683799266815,0.0005967132747173309
1717512985666580000,5.208580078125,0.0025300979614257812,-0.015580959618091583,-0.004182171076536179
1717512985676586500,5.21858642578125,-0.0022220611572265625,-0.0010406523942947388,-0.004068981856107712
1717512985686593000,5.228593017578125,0.007231712341308594,-0.00568070262670517,-0.003958743065595627
1717512985696599600,5.238599609375,0.007111549377441406,-0.0008269324898719788,-0.003850288689136505
1717512985706606000,5.248606201171875,-0.0024232864379882812,-0.0008668228983879089,-0.0036419108510017395
1717512985716612400,5.2586123046875,0.00232696533203125,-0.005614645779132843,-0.008248884230852127
1717512985726619000,5.268618896484375,-0.0024204254150390625,-0.005472466349601746,-0.003362879157066345
1717512985736625400,5.27862548828125,0.0023288726806640625,-0.005435936152935028,-0.0033701807260513306
1717512985746632000,5.2886318359375,0.011708259582519531,-0.0006923526525497437,0.001433495432138443
1717512985756638500,5.298638427734375,-0.007321357727050781,-0.0007368624210357666,-0.00336388498544693
1717512985766645000,5.30864501953125,-0.002490997314453125,0.0040312111377716064,-0.003268882632255554
1717512985776651500,5.318651611328125,0.006968498229980469,-0.0008014068007469177,-0.003177028149366379
1717512985786658000,5.328657958984375,0.0068531036376953125,-0.005553483963012695,-0.007795300334692001
1717512985796664600,5.33866455078125,-0.0073871612548828125,-0.0054151564836502075,-0.002920430153608322
1717512985806671000,5.348671142578125,-0.00255584716796875,-0.005279079079627991,0.0018737316131591797
1717512985816677600,5.358677734375,0.0069026947021484375,-0.00033367425203323364,0.00669073686003685
1717512985826684200,5.36868408203125,-0.0026292800903320312,-0.0002829432487487793,-0.002802673727273941
1717512985836690700,5.378690673828125,-0.0025844573974609375,-0.0050455257296562195,-0.002721797674894333
1717512985846697200,5.388697265625,0.0068759918212890625,-0.00020857155323028564,0.002168998122215271
1717512985856703500,5.398703369140625,0.0020532608032226562,-0.0049730390310287476,-0.0025428645312786102
1717512985866710000,5.4087099609375,0.0020198822021484375,-0.00494983047246933,-0.002468302845954895
1717512985876716500,5.418716552734375,-0.0027217864990234375,-0.00021873414516448975,-0.002395741641521454
1717512985886723000,5.42872314453125,0.0020322799682617188,-0.00958968698978424,-0.007034830749034882
1717512985896729600,5.4387294921875,0.0019979476928710938,0.004738606512546539,-0.002179190516471863
1717512985906736000,5.448736083984375,0.0019655227661132812,-0.004818461835384369,0.0025946535170078278
1717512985916742700,5.45874267578125,0.006641387939453125,0.000012971460819244385,0.007289070636034012
1717512985926749200,5.468749267578125,0.0065288543701171875,0.00015832483768463135,0.0023838169872760773
1717512985936755700,5.478755615234375,0.006420135498046875,0.00019775331020355225,-0.007045973092317581
1717512985946762200,5.48876220703125,-0.0031042098999023438,-0.004472658038139343,-0.0021948479115962982
1717512985956768800,5.498768798828125,-0.0030527114868164062,0.00035178661346435547,-0.006842762231826782
1717512985966775300,5.508775390625,0.0017070770263671875,0.000387042760848999,-0.00670560821890831
1717512985976781800,5.51878173828125,-0.0030307769775390625,-0.004286713898181915,-0.0019653700292110443
1717512985986788400,5.528788330078125,-0.0029802322387695312,0.0005342438817024231,-0.006619080901145935
1717512985996795000,5.538794921875,-0.0029296875,-0.0042461007833480835,0.002928663045167923
1717512986006801200,5.54880126953125,-0.0028810501098632812,0.0005734488368034363,-0.001706153154373169
1717512986016807700,5.5588076171875,0.0018758773803710938,-0.004104435443878174,-0.0016582980751991272
1717512986026814200,5.568814208984375,0.0018434524536132812,-0.003892846405506134,0.003096316009759903
1717512986036820700,5.57882080078125,-0.0076045989990234375,0.0009197890758514404,0.003061208873987198
1717512986046827300,5.5888271484375,0.006648063659667969,0.0009431540966033936,-0.0016828477382659912
1717512986056833800,5.598833740234375,0.0018281936645507812,-0.0037429779767990112,0.00306842103600502
1717512986066840300,5.60884033203125,-0.002910614013671875,0.0010659992694854736,-0.0063851699233055115
1717512986076846800,5.618846923828125,-0.0075702667236328125,0.0010852441191673279,-0.010974545031785965
1717512986086853400,5.628853271484375,0.001972198486328125,-0.008313648402690887,-0.006174392998218536
1717512986096860000,5.63885986328125,-0.00276947021484375,0.005986802279949188,-0.0013507455587387085
1717512986106866400,5.648866455078125,-0.00272369384765625,-0.003495551645755768,0.0033896639943122864
1717512986116873000,5.658873046875,-0.00267791748046875,0.0013059601187705994,-0.0013647787272930145
1717512986126879500,5.66887939453125,-0.0026330947875976562,0.0013180598616600037,-0.0012287572026252747
1717512986136886000,5.678885986328125,0.00682830810546875,0.0013287141919136047,-0.005908545106649399
1717512986146892500,5.688892578125,-0.0027027130126953125,0.006046891212463379,-0.000990450382232666
1717512986156898800,5.69889892578125,0.0067596435546875,-0.0035435929894447327,-0.0010700561106204987
1717512986166905300,5.7089052734375,-0.007479667663574219,0.005962468683719635,0.003559734672307968
1717512986176912000,5.718911865234375,-0.007355690002441406,0.0011836662888526917,-0.006012875586748123
1717512986186918400,5.72891845703125,0.006892204284667969,-0.003515876829624176,0.003510691225528717
1717512986196925000,5.738925048828125,-0.0026397705078125,-0.008139118552207947,0.0034575164318084717
1717512986206931500,5.748931396484375,0.0021123886108398438,-0.0032691434025764465,-0.0013037174940109253
1717512986216938000,5.75893798828125,0.0020771026611328125,0.001519039273262024,-0.0012762732803821564
1717512986226944500,5.768944580078125,0.0020427703857421875,0.001415155827999115,-0.0013536028563976288
1717512986236951000,5.778950927734375,0.0020084381103515625,0.006122902035713196,0.003381740301847458
1717512986246957600,5.78895751953125,0.0019741058349609375,-0.0032712817192077637,-0.0013792365789413452
1717512986256964000,5.798964111328125,0.0019407272338867188,-0.003092661499977112,0.0033561736345291138
1717512986266970600,5.808970703125,-0.007510185241699219,0.0016873404383659363,0.003200661391019821
1717512986276977200,5.81897705078125,0.0020303726196289062,0.001781761646270752,0.007757306098937988
1717512986286983700,5.828983642578125,-0.007420539855957031,-0.0029386356472969055,-0.0017855241894721985
1717512986296990000,5.838989990234375,0.0021190643310546875,0.001939140260219574,-0.0017520487308502197
1717512986306996500,5.84899658203125,-0.0073337554931640625,0.0019227489829063416,0.002989593893289566
1717512986317003000,5.8590029296875,0.0069141387939453125,-0.0075111836194992065,-0.0016605034470558167
1717512986327009500,5.869009521484375,-0.0026187896728515625,-0.0025602057576179504,-0.006337199360132217
1717512986337016000,5.87901611328125,-0.002574920654296875,0.006912566721439362,-0.0014152489602565765
1717512986347022600,5.889022705078125,0.0021762847900390625,0.002101019024848938,-0.006094548851251602
1717512986357029000,5.899029052734375,-0.007277488708496094,-0.00734034925699234,-0.0012794733047485352
1717512986367035600,5.90903564453125,0.006969451904296875,-0.002499215304851532,-0.0012520067393779755
1717512986377042200,5.919042236328125,-0.007273674011230469,0.007071703672409058,0.0034827888011932373
1717512986387048700,5.929048583984375,0.0022649765014648438,-0.0024545714259147644,-0.0011752471327781677
1717512986397055200,5.93905517578125,0.0022249221801757812,-0.002303287386894226,0.0034564360976219177
1717512986407061800,5.949061767578125,-0.0025205612182617188,0.002449735999107361,0.003405831754207611
1717512986417068300,5.959068359375,0.0022296905517578125,-0.0022951290011405945,0.003458552062511444
1717512986427074800,5.96907470703125,-0.0025157928466796875,-0.0022523105144500732,-0.001301489770412445
1717512986437081300,5.979081298828125,-0.0024738311767578125,-0.002212025225162506,-0.001375492662191391
1717512986447087600,5.989087646484375,0.0022764205932617188,-0.0021739229559898376,-0.0060544610023498535
1717512986457094100,5.99909423828125,-0.0024700164794921875,-0.002137191593647003,-0.005945712327957153
1717512986467100700,6.0091005859375,-0.0024290084838867188,-0.006810784339904785,0.0035785064101219177
1717512986477107200,6.019107177734375,-0.0070972442626953125,-0.0019908100366592407,-0.0011827610433101654
1717512986487113700,6.02911376953125,-0.0022706985473632812,-0.0019608885049819946,0.0036558397114276886
1717512986497120300,6.039120361328125,0.002475738525390625,-0.001932591199874878,-0.0011066868901252747
1717512986507126800,6.049126708984375,-0.0022745132446289062,0.002802737057209015,-0.0010812915861606598
1717512986517133300,6.05913330078125,0.002471923828125,0.0027494728565216064,-0.0010564140975475311
1717512986527139800,6.069139892578125,-0.0022783279418945312,0.0026964470744132996,0.0036775246262550354
1717512986537146400,6.079146484375,-0.002239227294921875,0.0026429370045661926,-0.005691178143024445
1717512986547153000,6.08915283203125,-0.0022020339965820312,0.002589784562587738,0.0037248507142066956
1717512986557159400,6.099159423828125,0.0025424957275390625,0.0026395395398139954,0.003771960735321045
1717512986567166000,6.109166015625,-0.0069179534912109375,-0.0020209476351737976,-0.000993974506855011
1717512986577172500,6.11917236328125,-0.0020952224731445312,-0.0018959343433380127,-0.0009722933173179626
1717512986587178800,6.1291787109375,-0.0020599365234375,0.0028327032923698425,-0.0009499527513980865
1717512986597185300,6.139185302734375,-0.002025604248046875,-0.0019365251064300537,-0.01034710556268692
1717512986607191800,6.14919189453125,-0.0019931793212890625,0.0028939247131347656,0.003955889493227005
1717512986617198300,6.1591982421875,-0.00196075439453125,-0.0017739981412887573,0.008602824062108994
1717512986627204900,6.169204833984375,-0.0019283294677734375,-0.0017591938376426697,-0.0009544938802719116
1717512986637211400,6.17921142578125,0.0028133392333984375,0.002963058650493622,-0.0008320063352584839
1717512986647218000,6.189218017578125,0.0027675628662109375,0.002897389233112335,0.003996547311544418
1717512986657224400,6.199224365234375,0.0027208328247070312,-0.0017730891704559326,-0.005484964698553085
1717512986667231000,6.20923095703125,0.002674102783203125,0.0030509084463119507,-0.0007864721119403839
1717512986677237500,6.219237548828125,0.007338523864746094,0.0029816776514053345,-0.0007731504738330841
1717512986687244000,6.229244140625,0.002506256103515625,-0.001692265272140503,-0.0008638575673103333
1717512986697250600,6.23925048828125,-0.0022439956665039062,0.003025040030479431,-0.0008502751588821411
1717512986707257000,6.249257080078125,0.00720977783203125,0.0030578449368476868,-0.0008374154567718506
1717512986717263600,6.259263671875,0.00238037109375,-0.0016190782189369202,0.003780074417591095
1717512986727270100,6.269270263671875,-0.0023679733276367188,-0.0016129538416862488,0.0037158504128456116
1717512986737276400,6.2792763671875,0.00238037109375,0.007809631526470184,-0.0010563209652900696
1717512986747283000,6.289282958984375,-0.007076263427734375,-0.006365187466144562,-0.0009374506771564484
1717512986757289500,6.29928955078125,0.0024576187133789062,0.0032385438680648804,0.00849299505352974
1717512986767296000,6.3092958984375,-0.0022916793823242188,-0.0015475824475288391,-0.0010684467852115631
1717512986777302500,6.319302490234375,0.0024547576904296875,0.00326576828956604,-0.0009503662586212158
1717512986787309000,6.32930908203125,0.007122039794921875,-0.00612727552652359,0.008581925183534622
1717512986797315600,6.339315673828125,-0.0024127960205078125,0.008074641227722168,0.0038299858570098877
1717512986807322000,6.349322021484375,-0.00237274169921875,-0.006213009357452393,-0.005655959248542786
1717512986817328600,6.35932861328125,0.007082939147949219,-0.0013258010149002075,-0.0008583292365074158
1717512986827335200,6.369335205078125,-0.002452850341796875,-0.005936838686466217,0.0038603581488132477
1717512986837341700,6.379341796875,-0.0024118423461914062,-0.005868017673492432,-0.0009184442460536957
1717512986847348200,6.38934814453125,0.0023365020751953125,-0.0009890571236610413,0.0039035752415657043
1717512986857354800,6.399354736328125,0.0070056915283203125,-0.0009009838104248047,-0.0007723085582256317
1717512986867361300,6.409361328125,0.0021800994873046875,-0.0009186640381813049,-0.0008685849606990814
1717512986877367600,6.419367431640625,-0.007273674011230469,0.003771163523197174,-0.0008613504469394684
1717512986887374000,6.4293740234375,-0.0024461746215820312,0.0038798004388809204,0.0038539916276931763
1717512986897380600,6.439380615234375,-0.0024051666259765625,-0.005637742578983307,-0.0009258054196834564
1717512986907387100,6.44938720703125,0.0023431777954101562,-0.0008718967437744141,-0.0009176768362522125
1717512986917393700,6.4593935546875,0.00701141357421875,-0.0007918030023574829,-0.0009099915623664856
1717512986927400200,6.469400146484375,0.0021848678588867188,0.003994174301624298,-0.000903744250535965
1717512986937406700,6.47940673828125,0.002147674560546875,0.003991164267063141,0.003811713308095932
1717512986947413200,6.489413330078125,-0.0025959014892578125,-0.0008246749639511108,-0.000865638256072998
1717512986957419800,6.499419677734375,0.0021562576293945312,0.003855571150779724,-0.0008610375225543976
1717512986967426300,6.50942626953125,-0.0025882720947265625,0.0038519054651260376,0.003956042230129242
1717512986977432800,6.519432861328125,0.002162933349609375,0.003847360610961914,-0.005536619573831558
1717512986987439400,6.529439453125,-0.0025815963745117188,0.003738291561603546,0.003961894661188126
1717512986997446000,6.53944580078125,-0.0025377273559570312,-0.005786687135696411,-0.000719849020242691
1717512987007452400,6.549452392578125,-0.0024967193603515625,-0.0008214488625526428,-0.0006154514849185944
1717512987017459000,6.559458984375,0.0022525787353515625,0.003956884145736694,-0.0006166025996208191
1717512987027465200,6.56946533203125,-0.0024938583374023438,0.0038436949253082275,-0.000617731362581253
1717512987037471700,6.5794716796875,0.0022554397583007812,-0.0008746311068534851,-0.0007232464849948883
1717512987047478300,6.589478271484375,-0.0024919509887695312,0.003902055323123932,-0.0054328665137290955
1717512987057484800,6.59948486328125,-0.0024509429931640625,0.003889709711074829,-0.0006473250687122345
1717512987067491300,6.6094912109375,-0.002410888671875,-0.0008318498730659485,-0.0006506256759166718
1717512987077497900,6.619497802734375,0.007045745849609375,-0.0007673203945159912,-0.005363926291465759
1717512987087504400,6.62950439453125,0.0022192001342773438,-0.0007046833634376526,-0.005290500819683075
1717512987097511000,6.639510986328125,0.0021820068359375,-0.0006439238786697388,0.004301790148019791
1717512987107517400,6.649517333984375,0.0021448135375976562,0.008832588791847229,-0.0004942193627357483
1717512987117524000,6.65952392578125,0.0021085739135742188,0.004024520516395569,0.0042065829038619995
1717512987127530500,6.669530517578125,0.0020723342895507812,-0.0007042735815048218,0.004120144993066788
1717512987137537000,6.679537109375,0.0020380020141601562,-0.0006465166807174683,-0.000570438802242279
1717512987147543600,6.68954345703125,-0.0027055740356445312,-0.0005906149744987488,-0.000577785074710846
1717512987157550000,6.699550048828125,0.0020475387573242188,-0.005245141685009003,0.004123341292142868
1717512987167556600,6.709556640625,0.00201416015625,-0.000509113073348999,0.004037272185087204
1717512987177563000,6.71956298828125,0.006690025329589844,0.004147060215473175,0.008661005645990372
1717512987187569400,6.7295693359375,-0.0028400421142578125,-0.0005892068147659302,-0.005626939237117767
1717512987197576000,6.739575927734375,-0.0027914047241210938,-0.0006425157189369202,-0.0008435770869255066
1717512987207582500,6.74958251953125,-0.0027446746826171875,0.004116453230381012,-0.005556315183639526
1717512987217589000,6.759589111328125,0.0020084381103515625,-0.0005186945199966431,-0.0006701983511447906
1717512987227595500,6.769595458984375,0.0019750595092773438,-0.00047166645526885986,-0.005386997014284134
1717512987237602000,6.77960205078125,0.0066509246826171875,-0.0051354169845581055,0.004101339727640152
1717512987247608600,6.789608642578125,-0.0028772354125976562,0.004403039813041687,-0.005403958261013031
1717512987257615000,6.799614990234375,0.0018796920776367188,-0.00034381449222564697,-0.005229417234659195
1717512987267621600,6.80962158203125,-0.0028600692749023438,-0.000303901731967926,-0.005057834088802338
1717512987277628200,6.819628173828125,-0.0028123855590820312,0.004443004727363586,-0.00028382986783981323
1717512987287634700,6.829634765625,-0.0074748992919921875,-0.00030776113271713257,0.0043063051998615265
1717512987297641200,6.83964111328125,-0.0026416778564453125,0.004437275230884552,0.004215624183416367
1717512987307647700,6.849647705078125,0.002109527587890625,0.009205147624015808,-0.0005831420421600342
1717512987317654000,6.859654052734375,0.0020742416381835938,0.0043720826506614685,-0.0005933158099651337
1717512987327660500,6.86966064453125,0.0020399093627929688,0.004327565431594849,-0.0006022900342941284
1717512987337667000,6.8796669921875,0.006714820861816406,-0.00042620301246643066,-0.0006120875477790833
1717512987347673600,6.889673583984375,0.0018939971923828125,-0.00510135293006897,0.004087924957275391
1717512987357680000,6.89968017578125,-0.0075550079345703125,0.004426196217536926,0.008709657937288284
1717512987367686700,6.909686767578125,-0.0074291229248046875,-0.0003322213888168335,-0.000872347503900528
1717512987377693200,6.919693115234375,0.0068206787109375,0.004405267536640167,0.008540835231542587
1717512987387699700,6.92969970703125,-0.0027112960815429688,0.0044575035572052,-0.0010371357202529907
1717512987397706200,6.939706298828125,0.0020427703857421875,0.009113200008869171,0.003670457750558853
1717512987407712800,6.949712646484375,-0.0026998519897460938,0.008981727063655853,-0.0011174343526363373
1717512987417719300,6.95971923828125,0.0020532608032226562,0.004246152937412262,-0.005825329571962357
1717512987427725800,6.969725830078125,-0.0073986053466796875,-0.0005147755146026611,-0.005745947360992432
1717512987437732400,6.979732421875,0.0021419525146484375,-0.0004877522587776184,-0.000856008380651474
1717512987447739000,6.98973876953125,0.002105712890625,0.004348620772361755,-0.0008589886128902435
1717512987457745400,6.999745361328125,0.0020694732666015625,0.004394695162773132,0.0038469135761260986
1717512987467751700,7.009751708984375,-0.0026731491088867188,-0.00037342309951782227,0.00386829674243927
1717512987477758200,7.01975830078125,0.0020799636840820312,0.009062543511390686,-0.00563092902302742
1717512987487764700,7.0297646484375,-0.0026645660400390625,0.004214614629745483,0.003760509192943573
1717512987497771300,7.039771240234375,-0.0026197433471679688,-0.0005537420511245728,-0.010340753942728043
1717512987507777800,7.04977783203125,0.002132415771484375,-0.0005356520414352417,-0.000664789229631424
1717512987517784300,7.059784423828125,-0.0026121139526367188,0.00889807939529419,-0.005378931760787964
1717512987527790800,7.069790771484375,-0.0025682449340820312,-0.005369268357753754,-0.005304664373397827
1717512987537797400,7.07979736328125,-0.007233619689941406,-0.0005656853318214417,-0.0005227960646152496
1717512987547804000,7.089803955078125,0.007012367248535156,-0.00526098906993866,0.0041786059737205505
1717512987557810400,7.099810546875,0.0021867752075195312,0.004246525466442108,-0.0006153173744678497
1717512987567817000,7.10981689453125,0.0021505355834960938,0.004177592694759369,-0.0005162395536899567
1717512987577823500,7.119823486328125,0.006823539733886719,0.004108637571334839,-0.0005219057202339172
1717512987587830000,7.129830078125,0.006710052490234375,-0.0006688982248306274,-0.000527307391166687
1717512987597836500,7.13983642578125,-0.0028200149536132812,-0.0005560219287872314,-0.0004291906952857971
1717512987607842800,7.1498427734375,-0.0074825286865234375,0.004262492060661316,-0.00043588876724243164
1717512987617849300,7.159849365234375,-0.0026502609252929688,0.008999630808830261,-0.0004423968493938446
1717512987627856000,7.16985595703125,0.002101898193359375,0.0042395517230033875,-0.00044875219464302063
1717512987637862400,7.1798623046875,-0.0026416778564453125,-0.0005455613136291504,-0.0004549883306026459
1717512987647869000,7.189868896484375,-0.007306098937988281,-0.005252376198768616,-0.0005654171109199524
1717512987657875500,7.19987548828125,-0.0071849822998046875,0.004347637295722961,-0.0005697384476661682
1717512987667882000,7.209882080078125,-0.0070648193359375,-0.0004424974322319031,-0.0005740150809288025
1717512987677888500,7.219888427734375,0.0071773529052734375,0.004366233944892883,-0.0004759840667247772
1717512987687895000,7.22989501953125,0.0023488998413085938,0.008990883827209473,0.0042266808450222015
1717512987697901600,7.239901611328125,0.0023097991943359375,-0.0005883798003196716,0.004142310470342636
1717512987707908000,7.249908203125,-0.0024385452270507812,0.004219673573970795,0.004058271646499634
1717512987717914600,7.25991455078125,0.0023107528686523438,0.004135109484195709,-0.005440618842840195
1717512987727921200,7.269921142578125,-0.0024366378784179688,0.004050999879837036,0.004053138196468353
1717512987737927700,7.279927734375,-0.0023956298828125,0.003967359662055969,-0.0007371753454208374
1717512987747934200,7.289934326171875,-0.0023565292358398438,-0.0007211118936538696,-0.005447685718536377
1717512987757940500,7.2999404296875,0.0023908615112304688,-0.0007273927330970764,-0.0007668137550354004
1717512987767947000,7.309947021484375,0.002349853515625,0.004077829420566559,-0.010082174092531204
1717512987777953500,7.31995361328125,-0.0023984909057617188,0.00409311056137085,-0.005220748484134674
1717512987787960000,7.3299599609375,-0.00235748291015625,0.004004389047622681,-0.0003360137343406677
1717512987797966600,7.339966552734375,-0.011734962463378906,-0.005500920116901398,-0.0004477947950363159
1717512987807973000,7.34997314453125,0.0025873184204101562,-0.0007225051522254944,0.009067121893167496
1717512987817979600,7.359979736328125,-0.0021657943725585938,-0.005338907241821289,-0.005223739892244339
1717512987827986200,7.369986083984375,0.0025777816772460938,-0.00046168267726898193,-0.005149539560079575
1717512987837992700,7.37999267578125,-0.0021734237670898438,0.004230089485645294,0.004340719431638718
1717512987847999200,7.389999267578125,0.007281303405761719,-0.005283825099468231,-0.0050601959228515625
1717512987858005800,7.400005859375,0.0024509429931640625,0.004297971725463867,0.00923968106508255
1717512987868012300,7.41001220703125,0.0024089813232421875,0.004301972687244415,-0.0003449246287345886
1717512987878018800,7.420018798828125,-0.0023393630981445312,-0.00040359050035476685,-0.0002491995692253113
1717512987888025300,7.430025390625,0.002407073974609375,-0.0003234073519706726,-0.0002592615783214569
1717512987898031600,7.440031494140625,0.0023660659790039062,-0.00024505704641342163,-0.004976682364940643
1717512987908038100,7.4500380859375,0.00232696533203125,0.004436410963535309,-0.00019824877381324768
1717512987918044700,7.460044677734375,-0.007129669189453125,-0.00027495622634887695,-0.00020804256200790405
1717512987928051200,7.47005126953125,0.0024051666259765625,0.004508510231971741,-0.004926290363073349
1717512987938057700,7.4800576171875,0.00707244873046875,0.004502356052398682,0.004558853805065155
1717512987948064300,7.490064208984375,0.006953239440917969,-0.00021282583475112915,-0.00023892149329185486
1717512987958070800,7.50007080078125,-0.0072879791259765625,-0.004850342869758606,-0.00014490634202957153
1717512987968077300,7.510077392578125,-0.007167816162109375,0.0000056549906730651855,-0.004864413291215897
1717512987978083800,7.520083740234375,0.002368927001953125,0.00007074326276779175,0.00001411139965057373
1717512987988090400,7.53009033203125,0.0023298263549804688,0.00013411790132522583,-0.009313594549894333
1717512987998097000,7.540096923828125,0.006999015808105469,0.004903964698314667,-0.009172104299068451
1717512988008103400,7.550103515625,-0.0025358200073242188,0.00017601251602172852,0.0003839954733848572
1717512988018110000,7.56010986328125,-0.0072021484375,0.00023429840803146362,0.00517524778842926
1717512988028116500,7.570116455078125,0.0023345947265625,0.00029040873050689697,0.00036584213376045227
1717512988038123000,7.580123046875,0.0070037841796875,0.00034436583518981934,-0.004363760352134705
1717512988048129300,7.59012939453125,0.002178192138671875,0.009710073471069336,0.005110863596200943
1717512988058135800,7.6001357421875,-0.002567291259765625,0.0001872628927230835,0.0003013722598552704
1717512988068142300,7.610142333984375,-0.00252532958984375,0.00023943185806274414,0.0002812035381793976
1717512988078148900,7.62014892578125,-0.0024843215942382812,0.004997558891773224,0.004968523979187012
1717512988088155400,7.6301552734375,-0.0024423599243164062,0.0048627108335494995,0.00026234984397888184
1717512988098162000,7.640161865234375,0.0023059844970703125,0.00012377649545669556,0.004949059337377548
1717512988108168400,7.65016845703125,-0.0071506500244140625,0.00017099827527999878,0.00013998150825500488
1717512988118175000,7.660175048828125,0.0023851394653320312,0.004924587905406952,0.004827793687582016
1717512988128181500,7.670181396484375,0.0070552825927734375,0.00007700920104980469,0.004831712692975998
1717512988138188000,7.68018798828125,0.011645317077636719,0.0048292577266693115,0.004731852561235428
1717512988148194600,7.690194580078125,0.0067424774169921875,0.00008328258991241455,0.000026926398277282715
1717512988158201000,7.700201171875,0.011338233947753906,0.00012398511171340942,0.000006314367055892944
1717512988168207600,7.71020751953125,0.011150360107421875,-0.004649274051189423,-0.000014368444681167603
1717512988178214100,7.720214111328125,-0.0031614303588867188,0.004884712398052216,0.004673488438129425
1717512988188220400,7.730220458984375,0.006308555603027344,-0.0045759230852127075,0.004574209451675415
1717512988198227000,7.74022705078125,-0.0032129287719726562,-0.009274892508983612,-0.00023240968585014343
1717512988208233500,7.7502333984375,0.00154876708984375,0.005040884017944336,0.004457894712686539
1717512988218240000,7.760239990234375,0.006232261657714844,0.004887774586677551,0.00436105951666832
1717512988228246500,7.77024658203125,-0.00328826904296875,0.014153264462947845,-0.0003398098051548004
1717512988238253000,7.780253173828125,0.0014753341674804688,-0.0048850104212760925,-0.0003573410212993622
1717512988248259600,7.790259521484375,0.0014505386352539062,-0.00006398558616638184,-0.000374864786863327
1717512988258266000,7.80026611328125,-0.0032815933227539062,-0.009553283452987671,-0.004997659474611282
1717512988268272600,7.810272705078125,-0.007935523986816406,0.00946962833404541,0.004478860646486282
1717512988278279200,7.820279052734375,0.0016126632690429688,0.00473504513502121,0.00438004732131958
1717512988288285700,7.83028564453125,-0.0031223297119140625,0.0046840086579322815,-0.0004258863627910614
1717512988298292200,7.840292236328125,0.006346702575683594,0.004632823169231415,0.004264332354068756
1717512988308298800,7.850298828125,0.0015325546264648438,0.004581928253173828,0.008876260370016098
1717512988318305300,7.86030517578125,0.0015077590942382812,0.004428073763847351,-0.0007145591080188751
1717512988328311800,7.870311767578125,0.0014829635620117188,0.004379600286483765,-0.005333714187145233
1717512988338318000,7.880318115234375,0.010875701904296875,-0.00037670135498046875,-0.005269628018140793
1717512988348324600,7.89032470703125,0.005986213684082031,-0.005054108798503876,0.0042105428874492645
1717512988358331100,7.9003310546875,0.001178741455078125,-0.0003404095768928528,-0.0005941055715084076
1717512988368337700,7.910337646484375,0.0011587142944335938,-0.00031048059463500977,-0.005317673087120056
1717512988378344200,7.92034423828125,-0.0035696029663085938,0.004427284002304077,-0.0005453042685985565
1717512988388350700,7.930350830078125,0.0011987686157226562,-0.005040325224399567,0.00424986332654953
1717512988398357200,7.940357177734375,0.001178741455078125,0.009193018078804016,-0.0005543157458305359
1717512988408363800,7.95036376953125,0.0011587142944335938,-0.00506223738193512,0.004243154078722
1717512988418370300,7.960370361328125,-0.0035696029663085938,0.004462510347366333,0.004147861152887344
1717512988428376800,7.970376953125,0.0011987686157226562,-0.00040072202682495117,-0.0007576309144496918
1717512988438383400,7.98038330078125,-0.003528594970703125,0.004233904182910919,-0.0007704757153987885
1717512988448390000,7.990389892578125,-0.0034694671630859375,-0.0005224645137786865,-0.0007818341255187988
1717512988458396400,8.000396484375,0.0012969970703125,-0.0004910603165626526,-0.0006895549595355988
