time,seconds_elapsed,z,y,x
1717512944870844000,0.127843994140625,-0.0127716064453125,0.0001498982310295105,-0.00886489823460579
1717512944880854000,0.13785400390625,-0.0071868896484375,-0.0040222108364105225,-0.01245388574898243
1717512944890865000,0.147864990234375,-0.010888099670410156,-0.003503158688545227,-0.007138043642044067
1717512944900876300,0.157876220703125,-0.00559234619140625,0.0012361779808998108,-0.002325570210814476
1717512944910888200,0.16788818359375,-0.005164146423339844,0.0012965202331542969,-0.0023196153342723846
1717512944920900000,0.177900146484375,-0.00479888916015625,0.005904503166675568,-0.002424517646431923
1717512944930910200,0.18791015625,-0.0044803619384765625,0.0011991113424301147,-0.0024367645382881165
1717512944940916700,0.197916748046875,-0.004202842712402344,0.0058695003390312195,-0.006949121132493019
1717512944950923000,0.207923095703125,-0.00395965576171875,0.0012750029563903809,-0.006814436987042427
1717512944960929500,0.217929443359375,0.0007801055908203125,0.00598493218421936,-0.011134102940559387
1717512944970935800,0.227935791015625,-0.008336067199707031,0.005829639732837677,-0.0062876008450984955
1717512944980942300,0.2379423828125,-0.0033740997314453125,-0.007849231362342834,-0.0017018280923366547
1717512944990948900,0.247948974609375,-0.003215789794921875,0.0019058361649513245,-0.010918881744146347
1717512945000955100,0.257955078125,0.0014982223510742188,0.006650753319263458,-0.0060304924845695496
1717512945010961700,0.267961669921875,-0.0031499862670898438,0.00204303115606308,-0.01052660122513771
1717512945020968000,0.277968017578125,0.001567840576171875,0.0068086013197898865,-0.005678482353687286
1717512945030974500,0.287974365234375,-0.0030946731567382812,0.011395394802093506,-0.010227899998426437
1717512945040980700,0.297980712890625,-0.002979278564453125,0.006716497242450714,-0.0008060261607170105
1717512945050987300,0.3079873046875,-0.002872467041015625,0.002120085060596466,-0.0056676119565963745
1717512945060993500,0.31799365234375,-0.0027723312377929688,0.0023081228137016296,-0.001027330756187439
1717512945071000000,0.328,-0.0073032379150390625,0.0023912638425827026,-0.0012730211019515991
1717512945081006300,0.33800634765625,-0.0024328231811523438,-0.0021542981266975403,-0.0014105401933193207
1717512945091012900,0.348012939453125,0.0022754669189453125,0.007447771728038788,-0.006280723959207535
1717512945101019100,0.35801904296875,-0.0024385452270507812,0.0028409138321876526,-0.0017286762595176697
1717512945111025700,0.368025634765625,0.0022754669189453125,-0.0016232281923294067,-0.011143404990434647
1717512945121032000,0.378031982421875,-0.00244140625,0.007985137403011322,-0.0017011910676956177
1717512945131038500,0.38803857421875,-0.0023756027221679688,0.003371112048625946,-0.0019353926181793213
1717512945141044700,0.398044677734375,-0.0023145675659179688,0.008300870656967163,-0.006820056587457657
1717512945151051300,0.40805126953125,-0.002254486083984375,0.0036836713552474976,-0.0021578464657068253
1717512945161057500,0.4180576171875,0.00246429443359375,0.008515462279319763,-0.011607080698013306
1717512945171064000,0.42806396484375,0.0023984909057617188,0.0038980096578598022,-0.002159571275115013
1717512945181070300,0.4380703125,0.0023355484008789062,0.013404645025730133,-0.006955752149224281
1717512945191076900,0.448076904296875,-0.0023965835571289062,0.008672632277011871,-0.007071061059832573
1717512945201083400,0.45808349609375,-0.0023431777954101562,0.004058778285980225,-0.007186878472566605
1717512945211089700,0.468089599609375,0.0023860931396484375,0.008805759251117706,-0.0025254394859075546
1717512945221096200,0.47809619140625,-0.007030487060546875,0.004090473055839539,-0.00275348499417305
1717512945231102500,0.4881025390625,0.007167816162109375,0.008948728442192078,-0.007659874856472015
1717512945241109000,0.49810888671875,0.0070095062255859375,0.013705797493457794,-0.007676383480429649
1717512945251115300,0.508115234375,0.002170562744140625,0.00899507850408554,-0.0124854426831007
1717512945261121800,0.518121826171875,0.0021219253540039062,0.004386894404888153,-0.017199017107486725
1717512945271128000,0.528128173828125,0.0020751953125,0.004565030336380005,-0.007752770557999611
1717512945281134600,0.538134521484375,-0.007355690002441406,0.014127105474472046,-0.012575631961226463
1717512945291141000,0.54814111328125,0.0068683624267578125,0.009423784911632538,-0.007919931784272194
1717512945301147400,0.5581474609375,0.0020360946655273438,0.004814229905605316,-0.008054079487919807
1717512945311154000,0.56815380859375,-0.0027027130126953125,0.009689867496490479,-0.008084721863269806
1717512945321160400,0.578160400390625,-0.0026559829711914062,0.00037916749715805054,-0.0176211129873991
1717512945331167000,0.5881669921875,-0.0026111602783203125,0.005342207849025726,-0.00818384625017643
1717512945341173200,0.59817333984375,0.006838798522949219,0.005515187978744507,-0.012924322858452797
1717512945351179800,0.6081796875,-0.007396697998046875,0.005686894059181213,-0.0034725647419691086
1717512945361186300,0.618186279296875,-0.0025653839111328125,0.005754530429840088,-0.008301431313157082
1717512945371192600,0.628192626953125,0.0021820068359375,0.0059259310364723206,-0.008446872234344482
1717512945381199000,0.63819921875,0.0021429061889648438,0.010804779827594757,-0.008489081636071205
1717512945391205600,0.64820556640625,0.006812095642089844,0.006185129284858704,-0.008633818477392197
1717512945401212200,0.658212158203125,-0.0027227401733398438,0.006350763142108917,-0.008777078241109848
1717512945411218400,0.668218505859375,0.0020294189453125,0.0064104050397872925,-0.008814709261059761
1717512945421225000,0.678224853515625,0.0019931793212890625,0.006572596728801727,-0.008850781247019768
1717512945431231500,0.6882314453125,0.0019559860229492188,0.0068350136280059814,-0.008990410715341568
1717512945441238000,0.698238037109375,-0.0027866363525390625,0.011595495045185089,-0.004314947873353958
1717512945451244300,0.708244384765625,0.006674766540527344,0.006859138607978821,-0.013947367668151855
1717512945461250800,0.718250732421875,0.0018520355224609375,0.007013864815235138,-0.00929252989590168
1717512945471257300,0.72825732421875,0.001819610595703125,0.0023541897535324097,-0.014132462441921234
1717512945481263600,0.738263671875,0.0017871856689453125,0.0024804621934890747,-0.014184055849909782
1717512945491270100,0.748270263671875,0.011170387268066406,0.0028111040592193604,-0.00481758825480938
1717512945501276700,0.758276611328125,0.006272315979003906,0.01255374401807785,-0.009732101112604141
1717512945511283200,0.768283203125,0.00145721435546875,0.007801741361618042,-0.005044268444180489
1717512945521289500,0.77828955078125,0.0014295578002929688,0.008043728768825531,-0.005247319117188454
1717512945531296000,0.7882958984375,0.0014028549194335938,0.012887053191661835,-0.010155579075217247
1717512945541302500,0.798302490234375,0.0060863494873046875,0.012838102877140045,-0.014981117099523544
1717512945551309000,0.80830908203125,0.005982398986816406,0.01289321482181549,-0.010205799713730812
1717512945561315300,0.8183154296875,0.001171112060546875,0.008238516747951508,-0.010219581425189972
1717512945571321900,0.82832177734375,0.0011491775512695312,0.0036616921424865723,-0.014837570488452911
1717512945581328400,0.838328369140625,-0.0035800933837890625,0.008475087583065033,-0.010064642876386642
1717512945591335000,0.8483349609375,0.005894660949707031,0.013208270072937012,-0.014891695231199265
1717512945601341200,0.858341064453125,-0.0036230087280273438,0.013153962790966034,-0.010117866098880768
1717512945611347700,0.86834765625,0.0011444091796875,0.008391961455345154,-0.01013219729065895
1717512945621354200,0.878354248046875,0.0011224746704101562,0.01793808490037918,-0.01025044173002243
1717512945631360500,0.888360595703125,0.0011005401611328125,0.00849071890115738,-0.005554873496294022
1717512945641367000,0.898366943359375,0.0057888031005859375,0.008515045046806335,-0.000936657190322876
1717512945651373600,0.90837353515625,-0.003726959228515625,0.01795589178800583,-0.005916757509112358
1717512945661380000,0.918380126953125,0.001041412353515625,0.008508242666721344,-0.015522455796599388
1717512945671386400,0.928386474609375,0.0010213851928710938,0.013344138860702515,-0.010738112032413483
1717512945681393000,0.938392822265625,0.005710601806640625,0.00857871025800705,-0.01074301265180111
1717512945691399400,0.9483994140625,0.0009050369262695312,0.013310186564922333,-0.015455517917871475
1717512945701406000,0.958406005859375,0.010304450988769531,0.00864885002374649,-0.010672291740775108
1717512945711412200,0.968412109375,0.000713348388671875,0.008670561015605927,-0.006072031334042549
1717512945721418800,0.978418701171875,0.0006999969482421875,0.008691906929016113,-0.01086239330470562
1717512945731425300,0.98842529296875,-0.0040225982666015625,0.013524465262889862,-0.01547056995332241
1717512945741431600,0.998431640625,0.010167121887207031,0.01356816291809082,-0.015395687893033028
1717512945751438000,1.00843798828125,0.0005788803100585938,0.01350788027048111,-0.010613461956381798
1717512945761444600,1.018444580078125,0.0005674362182617188,0.008740000426769257,-0.010516287758946419
1717512945771451100,1.028451171875,0.0005550384521484375,0.00886315107345581,-0.01062813587486744
1717512945781457400,1.03845751953125,0.0005435943603515625,0.00888129323720932,-0.010633962228894234
1717512945791464000,1.0484638671875,0.0005331039428710938,0.008899137377738953,-0.010742943733930588
1717512945801470500,1.058470458984375,0.000522613525390625,0.018333882093429565,-0.015558702871203423
1717512945811477000,1.06847705078125,0.0005121231079101562,0.013485580682754517,-0.020190950483083725
1717512945821483300,1.078483154296875,0.0005016326904296875,0.008718371391296387,-0.006013954058289528
1717512945831489800,1.08848974609375,0.0052013397216796875,0.00863567739725113,-0.010908540338277817
1717512945841496300,1.098496337890625,0.005112648010253906,0.008657611906528473,-0.020430145785212517
1717512945851502600,1.108502685546875,0.000316619873046875,0.008679181337356567,-0.010855421423912048
1717512945861509000,1.118509033203125,0.0050182342529296875,0.00870039314031601,-0.010960720479488373
1717512945871515600,1.128515625,-0.0044841766357421875,0.008721254765987396,-0.006355669349431992
1717512945881522200,1.138522216796875,0.00029754638671875,0.013450369238853455,-0.006432712078094482
1717512945891528400,1.148528564453125,0.00029087066650390625,0.003974877297878265,-0.011320322751998901
1717512945901535000,1.158534912109375,0.004992485046386719,0.008783094584941864,-0.011417873203754425
1717512945911541500,1.16854150390625,0.0001983642578125,0.013510912656784058,-0.011514706537127495
1717512945921548000,1.178548095703125,-0.004515647888183594,0.004034422338008881,-0.006900422275066376
1717512945931554300,1.18855419921875,0.00026607513427734375,0.013550251722335815,-0.0070716384798288345
1717512945941560800,1.198560791015625,0.00026035308837890625,0.008678175508975983,-0.011949507519602776
1717512945951567400,1.2085673828125,0.0002536773681640625,0.00869942456483841,-0.012036573141813278
1717512945961573600,1.21857373046875,0.000247955322265625,0.008720315992832184,-0.01212218776345253
1717512945971580200,1.228580078125,0.00024127960205078125,0.008844129741191864,-0.012103123590350151
1717512945981586700,1.238586669921875,0.00494384765625,0.008862622082233429,-0.012084372341632843
1717512945991593200,1.24859326171875,0.00485992431640625,0.00888080894947052,-0.007357336580753326
1717512946001599500,1.258599609375,0.00006866455078125,0.013607293367385864,-0.012229539453983307
1717512946011606000,1.26860595703125,0.0047740936279296875,0.0041292160749435425,-0.012311941012740135
1717512946021612500,1.278612548828125,-0.00001621246337890625,0.008934885263442993,-0.012289715930819511
1717512946031619000,1.288619140625,-0.004726409912109375,0.008951596915721893,-0.007560163736343384
1717512946041625300,1.298625244140625,-0.0046482086181640625,0.00886504352092743,-0.01242898590862751
1717512946051631900,1.3086318359375,0.00013637542724609375,0.008883193135261536,-0.007696205750107765
1717512946061638400,1.318638427734375,0.004840850830078125,0.013609647750854492,-0.0078541599214077
1717512946071644700,1.328644775390625,0.004757881164550781,0.008840128779411316,-0.012718085199594498
1717512946081651200,1.338651123046875,-0.004740715026855469,0.013567298650741577,-0.012689091265201569
1717512946091657700,1.34865771484375,0.0000457763671875,0.013404086232185364,-0.012659672647714615
1717512946101664300,1.358664306640625,0.00004291534423828125,0.008637726306915283,-0.003215368837118149
1717512946111670500,1.36867041015625,-0.004668235778808594,0.008659668266773224,-0.017573803663253784
1717512946121677000,1.378677001953125,-0.004591941833496094,0.008681245148181915,-0.00804668478667736
1717512946131683600,1.38868359375,-0.004517555236816406,0.003993868827819824,-0.008095547556877136
1717512946141690000,1.398690185546875,0.004973411560058594,0.00880180299282074,-0.012852190062403679
1717512946151696400,1.4086962890625,0.00018024444580078125,0.013529613614082336,-0.008112359791994095
1717512946161703000,1.418702880859375,0.004883766174316406,0.00876142829656601,-0.008160125464200974
1717512946171709400,1.42870947265625,0.000091552734375,0.013489916920661926,-0.01281244121491909
1717512946181715700,1.4387158203125,0.0047969818115234375,0.008722133934497833,-0.012782782316207886
1717512946191722200,1.44872216796875,0.009424209594726562,0.013348013162612915,-0.012855969369411469
1717512946201728800,1.458728759765625,0.0045566558837890625,0.013291463255882263,-0.017533279955387115
1717512946211735300,1.4687353515625,-0.004937171936035156,0.01313258707523346,-0.012715447694063187
1717512946221741600,1.478741455078125,-0.00014781951904296875,0.003662422299385071,-0.012686509639024734
1717512946231748000,1.488748046875,-0.0001468658447265625,0.0037672892212867737,-0.017366647720336914
1717512946241754600,1.498754638671875,-0.00014495849609375,0.008475743234157562,-0.00784299150109291
1717512946251761200,1.50876123046875,-0.0001430511474609375,0.008397132158279419,-0.012500600889325142
1717512946261767400,1.518767333984375,-0.000141143798828125,0.003611236810684204,-0.012475242838263512
1717512946271774000,1.52877392578125,0.00927734375,0.01773975044488907,-0.007740797474980354
1717512946281780500,1.538780517578125,-0.00029659271240234375,0.008192799985408783,-0.012503376230597496
1717512946291786800,1.548786865234375,0.004416465759277344,0.01282750815153122,-0.007769377902150154
1717512946301793300,1.558793212890625,-0.0003662109375,0.0032591819763183594,-0.01253148540854454
1717512946311799800,1.5687998046875,-0.000362396240234375,0.017496831715106964,-0.007692849263548851
1717512946321806300,1.578806396484375,0.009057998657226562,0.003245338797569275,-0.012662749737501144
1717512946331812600,1.5888125,-0.0005121231079101562,0.008065491914749146,-0.01253235712647438
1717512946341819100,1.598819091796875,0.00420379638671875,0.007993720471858978,-0.012506483122706413
1717512946351825700,1.60882568359375,0.0041332244873046875,0.007923148572444916,-0.012481044977903366
1717512946361832200,1.618832275390625,0.004063606262207031,0.007853753864765167,-0.00293557345867157
1717512946371838500,1.62883837890625,0.0039958953857421875,0.007682248950004578,-0.00777825154364109
1717512946381845000,1.638844970703125,0.00392913818359375,0.00751359760761261,-0.007831627503037453
1717512946391851500,1.6488515625,0.0038623809814453125,0.012159623205661774,-0.01259271614253521
1717512946401857800,1.65885791015625,0.0037975311279296875,0.00731128454208374,-0.01727353222668171
1717512946411864300,1.6688642578125,-0.0009756088256835938,0.0072520822286605835,-0.012460067868232727
1717512946421870800,1.678870849609375,-0.00566864013671875,0.011902466416358948,-0.012435425072908401
1717512946431877400,1.68887744140625,0.0038423538208007812,0.011766739189624786,-0.007702592760324478
1717512946441883600,1.698883544921875,0.0037775039672851562,0.006924949586391449,-0.01236165314912796
1717512946451890200,1.70889013671875,-0.0057048797607421875,0.011684045195579529,-0.007630055770277977
1717512946461896700,1.718896728515625,0.0038061141967773438,0.006843358278274536,-0.007582655176520348
1717512946471903200,1.7289033203125,-0.0009670257568359375,0.01620914787054062,-0.0029307138174772263
1717512946481909500,1.738909423828125,0.0037565231323242188,0.01129305362701416,-0.01719069480895996
1717512946491916000,1.748916015625,-0.0010156631469726562,0.0017502903938293457,-0.0076700299978256226
1717512946501922600,1.758922607421875,0.0037088394165039062,0.020618155598640442,-0.00772523507475853
1717512946511928800,1.7689287109375,-0.005770683288574219,0.010919980704784393,-0.012488126754760742
1717512946521935400,1.778935302734375,0.0037412643432617188,0.010800637304782867,-0.021983494982123375
1717512946531942000,1.78894189453125,0.0036783218383789062,0.015391871333122253,-0.012279694899916649
1717512946541948400,1.798948486328125,-0.0010929107666015625,0.010489657521247864,-0.012153884395956993
1717512946551954700,1.80895458984375,-0.0010747909545898438,0.005565613508224487,-0.012134378775954247
1717512946561961200,1.818961181640625,-0.005766868591308594,0.005535498261451721,-0.016823794692754745
1717512946571967700,1.8289677734375,0.0037450790405273438,0.005506150424480438,-0.012016918510198593
1717512946581974300,1.838974365234375,-0.001026153564453125,0.010082356631755829,-0.011999698355793953
1717512946591980500,1.84898046875,0.0036993026733398438,0.005165360867977142,-0.011981824412941933
1717512946601987000,1.858987060546875,0.0036363601684570312,0.005142182111740112,-0.007255649194121361
1717512946611993600,1.86899365234375,-0.001132965087890625,0.005016125738620758,-0.007420113310217857
1717512946621999900,1.878999755859375,0.00359344482421875,0.009704045951366425,-0.016999032348394394
1717512946632006400,1.88900634765625,-0.005883216857910156,0.004793092608451843,-0.012190194800496101
1717512946642013000,1.899012939453125,0.003631591796875,0.009381458163261414,-0.007357284426689148
1717512946652019500,1.90901953125,0.008278846740722656,0.013996616005897522,-0.007313525304198265
1717512946662025700,1.919025634765625,-0.0012769699096679688,0.004408791661262512,-0.011980049312114716
1717512946672032300,1.9290322265625,-0.0012559890747070312,0.013711884617805481,-0.011963468044996262
1717512946682038800,1.939038818359375,-0.005944252014160156,0.004129067063331604,-0.011842943727970123
1717512946692045300,1.94904541015625,-0.0011377334594726562,-0.000585705041885376,-0.011622114107012749
1717512946702051600,1.959051513671875,-0.0011196136474609375,0.00890415906906128,-0.011507276445627213
1717512946712058000,1.96905810546875,-0.005810737609863281,0.008818671107292175,-0.006685756146907806
1717512946722064600,1.979064697265625,-0.0010051727294921875,0.01333993673324585,-0.006653191521763802
1717512946732071000,1.98907080078125,-0.0009889602661132812,0.003763042390346527,-0.016039328649640083
1717512946742077400,1.999077392578125,-0.0009737014770507812,0.008471831679344177,-0.015850873664021492
1717512946752084000,2.009083984375,0.0037508010864257812,-0.0011269152164459229,-0.011060230433940887
1717512946762090200,2.01909033203125,-0.0010213851928710938,0.003663361072540283,-0.010954761877655983
1717512946772096800,2.0290966796875,0.003704071044921875,0.01301451027393341,-0.005973547697067261
1717512946782103000,2.03910302734375,0.0036420822143554688,0.0033778920769691467,-0.010492725297808647
1717512946792109600,2.049109619140625,0.003582000732421875,0.0032179802656173706,-0.01493777148425579
1717512946802115800,2.05911572265625,0.0035219192504882812,0.0031661316752433777,-0.009996043518185616
1717512946812122400,2.069122314453125,-0.0012454986572265625,0.0031169503927230835,-0.01455611176788807
1717512946822128600,2.079128662109375,0.0034847259521484375,0.007675960659980774,-0.00952102430164814
1717512946832135200,2.08913525390625,0.008134841918945312,0.0028473511338233948,-0.009278824552893639
1717512946842141400,2.099141357421875,-0.0014171600341796875,0.007415086030960083,-0.009145313873887062
1717512946852148000,2.10914794921875,0.0033159255981445312,0.011908568441867828,-0.013620775192975998
1717512946862154200,2.119154296875,0.003261566162109375,0.011620394885540009,0.0007080063223838806
1717512946872160800,2.129160888671875,-0.0015001296997070312,0.0019216090440750122,-0.00864325650036335
1717512946882167300,2.139167236328125,0.00323486328125,-0.0029051750898361206,-0.013131650164723396
1717512946892173600,2.149173583984375,0.00318145751953125,-0.002941526472568512,-0.008130678907036781
1717512946902180000,2.15918017578125,-0.00157928466796875,0.011150486767292023,-0.00792238861322403
1717512946912186400,2.169186279296875,-0.006260871887207031,0.0061748698353767395,-0.007719334214925766
1717512946922193000,2.17919287109375,-0.0014467239379882812,-0.0034247934818267822,-0.0028128735721111298
1717512946932199200,2.18919921875,-0.006130218505859375,0.005971819162368774,-0.0026976503431797028
1717512946942205700,2.199205810546875,0.0033893585205078125,0.0011905580759048462,-0.0025872141122817993
1717512946952212000,2.2092119140625,-0.0013751983642578125,0.0010958760976791382,-0.002583777531981468
1717512946962218500,2.219218505859375,-0.0013513565063476562,0.0010043233633041382,-0.007187604904174805
1717512946972224800,2.229224853515625,-0.0013284683227539062,0.0010191276669502258,-0.006904697045683861
1717512946982231300,2.239231201171875,-0.0013055801391601562,0.000931955873966217,-0.0114402174949646
1717512946992237600,2.249237548828125,-0.005991935729980469,0.005556046962738037,-0.0064857713878154755
1717512947002244000,2.259244140625,0.0035247802734375,0.005499601364135742,-0.0016147196292877197
1717512947012250400,2.26925048828125,0.0034656524658203125,0.0007370114326477051,-0.01095244288444519
1717512947022257000,2.2792568359375,0.0034084320068359375,0.005369238555431366,-0.006010532379150391
1717512947032263400,2.289263427734375,-0.0013561248779296875,0.0005085468292236328,-0.005861334502696991
1717512947042269700,2.299269775390625,-0.006041526794433594,0.0004386231303215027,-0.0009054839611053467
1717512947052276200,2.309276123046875,0.0034770965576171875,0.009789228439331055,-0.005552429705858231
1717512947062282800,2.31928271484375,0.0034198760986328125,0.00956793874502182,-0.005416031926870346
1717512947072289300,2.329289306640625,0.008073806762695312,0.0045403167605400085,-0.0052826181054115295
1717512947082295600,2.339295654296875,0.0032320022583007812,0.0044095516204833984,-0.0004455447196960449
1717512947092302000,2.349302001953125,0.007887840270996094,-0.0004260838031768799,-0.014525186270475388
1717512947102308600,2.35930859375,0.0030488967895507812,0.004237666726112366,-0.004828888922929764
1717512947112315000,2.36931494140625,-0.0064182281494140625,0.00411667674779892,-0.004713088274002075
1717512947122321400,2.3793212890625,-0.0016021728515625,-0.0007092803716659546,-0.004600923508405685
1717512947132328000,2.389327880859375,-0.0015745162963867188,-0.0007446035742759705,-0.0043890587985515594
1717512947142334500,2.39933447265625,-0.006256103515625,-0.0007777437567710876,0.000422891229391098
1717512947152340700,2.4093408203125,0.0032663345336914062,0.003899514675140381,-0.004265274852514267
1717512947162347300,2.41934716796875,0.0032129287719726562,0.0037921369075775146,-0.004167400300502777
1717512947172353800,2.429353759765625,-0.0015478134155273438,-0.0010204985737800598,0.0006357505917549133
1717512947182360300,2.4393603515625,0.0031862258911132812,-0.001042790710926056,-0.008768618106842041
1717512947192366600,2.44936669921875,0.003131866455078125,0.003748655319213867,-0.00389210507273674
1717512947202373000,2.459373046875,-0.006337165832519531,-0.005767345428466797,-0.0038070939481258392
1717512947212379600,2.469379638671875,-0.0015230178833007812,0.008522935211658478,-0.0036218389868736267
1717512947222386000,2.479385986328125,0.0032100677490234375,0.003742039203643799,-0.0036478079855442047
1717512947232392400,2.489392333984375,-0.006260871887207031,0.003647841513156891,0.005743298679590225
1717512947242399000,2.49939892578125,-0.006155967712402344,0.0035561323165893555,-0.008361071348190308
1717512947252405500,2.509405517578125,0.0033636093139648438,-0.005950011312961578,0.0012078844010829926
1717512947262411800,2.519411865234375,0.008016586303710938,-0.0011707544326782227,-0.0035098493099212646
1717512947272418300,2.529418212890625,0.0031766891479492188,0.0034267455339431763,-0.003338456153869629
1717512947282424800,2.5394248046875,-0.0015840530395507812,-0.0013651549816131592,0.0015373453497886658
1717512947292431400,2.549431396484375,0.0031518936157226562,0.0032382309436798096,0.001519717276096344
1717512947302437600,2.559437744140625,-0.006318092346191406,-0.006256856024265289,-0.0032085105776786804
1717512947312444200,2.569444091796875,0.003204345703125,-0.0014664232730865479,-0.0031495578587055206
1717512947322450700,2.57945068359375,-0.001556396484375,-0.0014633014798164368,0.0017190873622894287
1717512947332457000,2.58945703125,-0.0062389373779296875,-0.0014591589570045471,-0.0030150562524795532
1717512947342463500,2.59946337890625,0.0032825469970703125,0.003254212439060211,0.0016414821147918701
1717512947352470000,2.609469970703125,-0.0014820098876953125,0.0032850876450538635,-0.0030936002731323242
1717512947362476500,2.6194765625,0.0032510757446289062,-0.0014958083629608154,-0.007751822471618652
1717512947372482800,2.62948291015625,-0.0015115737915039062,-0.006195716559886932,-0.0030184760689735413
1717512947382489300,2.6394892578125,0.0032215118408203125,-0.0012963339686393738,-0.002971295267343521
1717512947392495900,2.649495849609375,-0.006249427795410156,-0.001289650797843933,-0.007634367793798447
1717512947402502400,2.65950244140625,-0.0014362335205078125,-0.00599091500043869,-0.0075119175016880035
1717512947412508700,2.6695087890625,-0.0014123916625976562,0.003512658178806305,-0.0026836395263671875
1717512947422515200,2.67951513671875,-0.0013895034790039062,0.0035445615649223328,0.0021667741239070892
1717512947432521700,2.689521728515625,-0.0013666152954101562,-0.0012353584170341492,-0.007293332368135452
1717512947442528000,2.699528076171875,0.00336456298828125,0.0034820958971977234,-0.002470545470714569
1717512947452534500,2.709534423828125,-0.001399993896484375,-0.001295432448387146,-0.0023329779505729675
1717512947462541000,2.719541015625,-0.001377105712890625,-0.0012846887111663818,-0.00701107457280159
1717512947472547600,2.729547607421875,-0.001354217529296875,0.00343487411737442,-0.006903070956468582
1717512947482553900,2.739553955078125,0.0033769607543945312,-0.0013406574726104736,-0.006796292960643768
1717512947492560400,2.749560302734375,0.0033216476440429688,-0.001430898904800415,0.0026222169399261475
1717512947502567000,2.75956689453125,0.0032663345336914062,0.0032926127314567566,0.002569444477558136
1717512947512573400,2.769573486328125,0.00321197509765625,-0.001479417085647583,-0.002191394567489624
1717512947522579700,2.779579833984375,-0.0015497207641601562,0.0032452791929244995,-0.0020623430609703064
1717512947532586200,2.789586181640625,-0.0109405517578125,0.003080107271671295,-0.0020379722118377686
1717512947542592800,2.7995927734375,0.0033674240112304688,0.00302094966173172,-0.001911986619234085
1717512947552599000,2.80959912109375,-0.0013971328735351562,0.002963118255138397,-0.0018915720283985138
1717512947562605600,2.81960546875,-0.0013742446899414062,0.0029069557785987854,0.002837948501110077
1717512947572612000,2.829612060546875,0.008066177368164062,-0.0018565580248832703,-0.001825433224439621
1717512947582618600,2.83961865234375,0.0032243728637695312,0.002773173153400421,-0.0018069036304950714
1717512947592625000,2.849625,-0.0015382766723632812,-0.0019878968596458435,-0.0016855224967002869
1717512947602631400,2.85963134765625,-0.0015125274658203125,-0.0019603371620178223,-0.006273854523897171
1717512947612638000,2.869637939453125,0.0032215118408203125,0.0027756690979003906,-0.0014719292521476746
1717512947622644500,2.87964453125,-0.0015411376953125,0.002724073827266693,-0.0014598146080970764
1717512947632650800,2.889650634765625,-0.0015153884887695312,0.0026740506291389465,0.003364797681570053
1717512947642657300,2.8996572265625,-0.006199836730957031,-0.001980125904083252,-0.0014117099344730377
1717512947652663800,2.909663818359375,-0.006096839904785156,-0.0019514411687850952,0.0033072903752326965
1717512947662670000,2.919670166015625,-0.0059947967529296875,-0.0019228830933570862,-0.0013666152954101562
1717512947672676600,2.929676513671875,-0.001186370849609375,0.0028145387768745422,0.0034552328288555145
1717512947682683100,2.93968310546875,0.0035419464111328125,-0.001943834125995636,0.00348769873380661
1717512947692689700,2.949689697265625,-0.0012254714965820312,-0.006622515618801117,-0.001189444214105606
1717512947702696000,2.959696044921875,0.0035037994384765625,0.0029029473662376404,0.003628034144639969
1717512947712702500,2.969702392578125,-0.0012645721435546875,-0.0017524734139442444,-0.005761153995990753
1717512947722709000,2.979708984375,0.0034656524658203125,-0.006536833941936493,0.0037355944514274597
1717512947732715500,2.989715576171875,-0.0012998580932617188,-0.0018234997987747192,-0.0009481534361839294
1717512947742721800,2.9997216796875,0.0034303665161132812,0.0029149577021598816,0.0038625821471214294
1717512947752728300,3.009728271484375,0.0033731460571289062,-0.0018423497676849365,-0.0008249208331108093
1717512947762734800,3.01973486328125,-0.0013914108276367188,-0.0018113702535629272,-0.0007266514003276825
1717512947772741000,3.0297412109375,-0.0013685226440429688,-0.0017805099487304688,0.008682865649461746
1717512947782747600,3.03974755859375,0.0033626556396484375,0.002958439290523529,-0.0009009689092636108
1717512947792754200,3.049754150390625,-0.0014009475708007812,-0.0019013062119483948,-0.0009080283343791962
1717512947802760700,3.0597607421875,-0.0013780593872070312,0.002944059669971466,-0.0008129104971885681
1717512947812767000,3.06976708984375,-0.0013561248779296875,0.003000795841217041,-0.0054282136261463165
1717512947822773500,3.0797734375,0.008082389831542969,-0.0016524866223335266,0.004155859351158142
1717512947832780000,3.089780029296875,-0.0014696121215820312,0.007794953882694244,-0.0005459226667881012
1717512947842786600,3.09978662109375,-0.0014448165893554688,-0.0017496570944786072,-0.00046315044164657593
1717512947852792800,3.109792724609375,-0.006129264831542969,-0.0017174556851387024,-0.005194023251533508
1717512947862799400,3.11979931640625,0.0033903121948242188,0.003022894263267517,0.004381563514471054
1717512947872806000,3.129805908203125,0.0033330917358398438,-0.006338253617286682,-0.005141567438840866
1717512947882812200,3.139812255859375,0.003276824951171875,-0.006126619875431061,-0.0003826841711997986
1717512947892818700,3.149818603515625,0.0032224655151367188,0.008104801177978516,0.0042989179491996765
1717512947902825200,3.1598251953125,0.0031681060791015625,-0.0013413354754447937,-0.005123980343341827
1717512947912831700,3.169831787109375,-0.0015935897827148438,0.003495551645755768,-0.0001622326672077179
1717512947922838000,3.179838134765625,-0.0015668869018554688,0.003439679741859436,0.00461207702755928
1717512947932844500,3.189844482421875,-0.0015420913696289062,0.0034876614809036255,-0.0048204511404037476
1717512947942851000,3.19985107421875,-0.0015153884887695312,0.003431171178817749,0.00013181567192077637
1717512947952857600,3.209857666015625,-0.0014905929565429688,0.003375537693500519,0.00008594244718551636
1717512947962863900,3.21986376953125,0.0032415390014648438,0.0034235715866088867,-0.0045659542083740234
1717512947972870400,3.229870361328125,-0.001522064208984375,-0.0012387856841087341,0.009588334709405899
1717512947982877000,3.239876953125,-0.0014963150024414062,0.0034898221492767334,0.004774179309606552
1717512947992883200,3.24988330078125,0.0032367706298828125,-0.001278318464756012,-0.00006441399455070496
1717512948002889700,3.2598896484375,0.0031824111938476562,0.0034494027495384216,-0.000011850148439407349
1717512948012896300,3.269896240234375,-0.006287574768066406,-0.006027944386005402,0.004748139530420303
1717512948022902800,3.27990283203125,-0.0014753341674804688,-0.0011196136474609375,-0.00009395554661750793
1717512948032909000,3.289908935546875,-0.0014505386352539062,-0.001002676784992218,0.00005856901407241821
1717512948042915600,3.29991552734375,-0.00142669677734375,0.003716573119163513,0.004709411412477493
1717512948052922000,3.309922119140625,-0.00140380859375,-0.0009582862257957458,0.004571951925754547
1717512948062928600,3.3199287109375,-0.00138092041015625,0.003861159086227417,-0.0002719461917877197
1717512948072935000,3.329934814453125,0.0033502578735351562,0.0037871673703193665,-0.00022432953119277954
1717512948082941400,3.33994140625,-0.006123542785644531,-0.0008921995759010315,0.004530057311058044
1717512948092948000,3.349947998046875,0.00339508056640625,-0.0007862970232963562,-0.00021297112107276917
1717512948102954200,3.359954345703125,-0.001369476318359375,-0.0007867962121963501,0.0046425797045230865
1717512948112960800,3.369960693359375,-0.001346588134765625,0.003919914364814758,0.004501163959503174
1717512948122967300,3.37996728515625,-0.0013246536254882812,0.003941431641578674,-0.00024409592151641846
1717512948132973800,3.389973876953125,0.0034046173095703125,-0.0054556503891944885,-0.0049101077020168304
1717512948142980000,3.39997998046875,0.008055686950683594,0.004136405885219574,0.004625588655471802
1717512948152986600,3.409986572265625,-0.006205558776855469,-0.0005586668848991394,-0.0002275519073009491
1717512948162993200,3.4199931640625,-0.0013942718505859375,-0.00046838074922561646,-0.004897356033325195
1717512948172999700,3.429999755859375,-0.001373291015625,0.004430755972862244,-0.00007294118404388428
1717512948183006000,3.440005859375,-0.00135040283203125,-0.00508522242307663,-0.00003729015588760376
1717512948193012500,3.450012451171875,0.00337982177734375,-0.004924073815345764,0.0046013593673706055
1717512948203019000,3.46001904296875,-0.001384735107421875,-0.00016185641288757324,0.004453424364328384
1717512948213025500,3.470025634765625,0.0033464431762695312,-0.00008589029312133789,-0.00029798224568367004
1717512948223031800,3.48003173828125,-0.0014190673828125,-0.000012367963790893555,0.004344172775745392
1717512948233038300,3.490038330078125,0.008020401000976562,0.0047669559717178345,-0.0004054717719554901
1717512948243044900,3.500044921875,-0.006239891052246094,0.000047847628593444824,-0.00036780908703804016
1717512948253051100,3.510051025390625,-0.0014276504516601562,0.009531199932098389,-0.004937518388032913
1717512948263057700,3.5200576171875,-0.006112098693847656,0.004729479551315308,-0.000013276934623718262
1717512948273064200,3.530064208984375,-0.006011009216308594,-0.004702851176261902,0.0046209655702114105
1717512948283070700,3.54007080078125,0.003505706787109375,0.0001461505889892578,-0.004948209971189499
1717512948293077000,3.550076904296875,0.0034465789794921875,0.00020444393157958984,-0.00023147091269493103
1717512948303083500,3.56008349609375,-0.0013208389282226562,0.004968270659446716,-0.00030326470732688904
1717512948313090000,3.570090087890625,0.0034093856811523438,-0.0045780763030052185,-0.00037415698170661926
1717512948323096600,3.5800966796875,-0.006064414978027344,0.004971012473106384,-0.005048464983701706
1717512948333102800,3.590102783203125,-0.001255035400390625,0.009650252759456635,0.00918828696012497
1717512948343109400,3.600109375,0.0034732818603515625,0.004936255514621735,-0.0050630345940589905
1717512948353116000,3.610115966796875,0.0034160614013671875,0.009509377181529999,-0.00014035776257514954
1717512948363122200,3.6201220703125,0.0033597946166992188,-0.00012122094631195068,0.00459684431552887
1717512948373128700,3.630128662109375,-0.0014047622680664062,-0.00007253885269165039,-0.004870861768722534
1717512948383135200,3.64013525390625,-0.00138092041015625,-0.000025957822799682617,-0.00005412846803665161
1717512948393141800,3.650141845703125,-0.0013570785522460938,0.004623517394065857,0.004785452038049698
1717512948403148000,3.66014794921875,0.008082389831542969,-0.0001204460859298706,0.00002275034785270691
1717512948413154600,3.670154541015625,-0.006176948547363281,0.004527010023593903,0.00475645437836647
1717512948423161000,3.6801611328125,0.0033426284790039062,-0.00021804869174957275,0.004600204527378082
1717512948433167600,3.690167724609375,-0.0014219284057617188,-0.00017687678337097168,0.009258229285478592
1717512948443174000,3.700173828125,-0.0013980865478515625,-0.00013777613639831543,-0.0001841038465499878
1717512948453180400,3.710180419921875,-0.0013751983642578125,-0.004809647798538208,-0.00015638023614883423
1717512948463187000,3.72018701171875,0.0033559799194335938,-0.004696734249591827,-0.00013039633631706238
1717512948473193200,3.730193115234375,0.0032987594604492188,0.004831045866012573,0.009210765361785889
1717512948483199700,3.74019970703125,0.0032444000244140625,0.004678376019001007,-0.005043819546699524
1717512948493206300,3.750206298828125,-0.00151824951171875,-0.00007858872413635254,0.00448077917098999
1717512948503212800,3.760212890625,0.007924079895019531,-0.009465537965297699,-0.009695753455162048
1717512948513219000,3.770218994140625,0.003082275390625,0.00024061650037765503,-0.00009344145655632019
1717512948523225600,3.7802255859375,-0.0016775131225585938,0.00026316940784454346,0.0047421082854270935
1717512948533232000,3.790232177734375,0.00305938720703125,-0.004423759877681732,0.004685763269662857
1717512948543238700,3.80023876953125,-0.00170135498046875,0.005195602774620056,-0.0000787004828453064
1717512948553245000,3.810244873046875,-0.006381034851074219,0.0003214627504348755,-0.00476425513625145
1717512948563251500,3.82025146484375,-0.0015659332275390625,0.005047820508480072,0.004752524197101593
1717512948573258000,3.830258056640625,0.0031690597534179688,0.00498642772436142,0.004693876951932907
1717512948583264300,3.84026416015625,-0.0015935897827148438,0.00031957775354385376,-0.00007405877113342285
1717512948593270800,3.850270751953125,-0.001567840576171875,0.005147367715835571,0.009466815739870071
1717512948603277300,3.86027734375,-0.0015420913696289062,0.00037310272455215454,0.004617847502231598
1717512948613283800,3.870283935546875,0.0031919479370117188,-0.004321187734603882,-0.00004604458808898926
1717512948623290000,3.8802900390625,-0.0015697479248046875,0.005187086760997772,-0.0000285319983959198
1717512948633296600,3.890296630859375,0.0031642913818359375,0.0005136281251907349,-0.000012196600437164307
1717512948643303200,3.90030322265625,0.00311279296875,0.005127951502799988,0.004711553454399109
1717512948653309700,3.910309814453125,0.0077686309814453125,-0.004255063831806183,0.000040724873542785645
1717512948663316000,3.92031591796875,-0.0064868927001953125,0.005248606204986572,0.00015539675951004028
1717512948673322500,3.930322509765625,-0.00167083740234375,0.0005709156394004822,0.00016489997506141663
1717512948683329000,3.9403291015625,-0.0016431808471679688,0.009992413222789764,0.00017223507165908813
1717512948693335300,3.950335205078125,0.0030927658081054688,0.000421963632106781,0.00017940253019332886
1717512948703341800,3.960341796875,0.0077495574951171875,0.005135856568813324,-0.0045232027769088745
1717512948713348400,3.970348388671875,0.0029115676879882812,0.00035299360752105713,0.00026869773864746094
1717512948723355000,3.98035498046875,-0.0018463134765625,0.009877912700176239,0.004979673773050308
1717512948733361200,3.990361083984375,0.0028934478759765625,0.005013555288314819,0.00019286945462226868
1717512948743367700,4.00036767578125,0.0028448104858398438,0.0002291947603225708,0.004901956766843796
1717512948753374200,4.010374267578125,0.0027971267700195312,0.0049410611391067505,0.00021854788064956665
1717512948763380700,4.020380615234375,-0.0019578933715820312,0.00957326591014862,0.00032069161534309387
1717512948773387000,4.030386962890625,0.0027828216552734375,0.004813194274902344,0.005025338381528854
1717512948783393500,4.0403935546875,-0.006680488586425781,-0.00468096137046814,0.00023225322365760803
1717512948793400000,4.050400146484375,-0.001861572265625,0.00021141022443771362,0.0049361251294612885
1717512948803406300,4.06040625,0.0028772354125976562,-0.004396110773086548,-0.00927390530705452
1717512948813412900,4.070412841796875,0.0028295516967773438,0.005094476044178009,0.005003374069929123
1717512948823419400,4.08041943359375,-0.0019273757934570312,0.009820342063903809,0.00020721182227134705
1717512948833426000,4.090426025390625,-0.0018949508666992188,0.00023712217807769775,0.00501038134098053
1717512948843432200,4.10043212890625,-0.0018644332885742188,0.00033283233642578125,0.00021195411682128906
1717512948853438700,4.110438720703125,-0.006542205810546875,0.00032241642475128174,-0.0045075491070747375
1717512948863445200,4.1204453125,0.00298309326171875,-0.004294820129871368,0.00026677921414375305
1717512948873451800,4.13045166015625,-0.0017757415771484375,0.005289807915687561,0.009670145809650421
1717512948883458000,4.1404580078125,0.0029611587524414062,0.005295813083648682,0.004789058119058609
1717512948893464600,4.150464599609375,-0.001796722412109375,0.0004889369010925293,0.009509876370429993
1717512948903471000,4.16047119140625,0.002941131591796875,0.005281716585159302,-0.00007692351937294006
1717512948913477400,4.170477294921875,-0.006525993347167969,0.009992867708206177,0.004620026797056198
1717512948923484000,4.18048388671875,-0.0017080307006835938,0.005103670060634613,0.004632588475942612
1717512948933490400,4.190490478515625,-0.0016803741455078125,0.00039786845445632935,0.004540935158729553
1717512948943497000,4.2004970703125,-0.0016536712646484375,0.00047770142555236816,0.0045533813536167145
1717512948953503200,4.210503173828125,-0.0016269683837890625,0.0005548074841499329,0.00456494465470314
1717512948963509800,4.220509765625,0.007816314697265625,0.0006291866302490234,-0.00023622065782546997
1717512948973516300,4.230516357421875,0.0029773712158203125,0.0053061917424201965,0.004459179937839508
1717512948983522800,4.240522705078125,-0.001781463623046875,0.005298428237438202,-0.005050111562013626
1717512948993529000,4.250529052734375,-0.0017518997192382812,0.0004770234227180481,0.004431847482919693
1717512949003535600,4.26053564453125,0.007693290710449219,0.0005467236042022705,-0.00036963075399398804
1717512949013542100,4.270542236328125,0.0028553009033203125,0.0006137117743492126,-0.00048634037375450134
1717512949023548400,4.28054833984375,0.00751495361328125,0.0006780177354812622,-0.000498354434967041
1717512949033555000,4.290554931640625,0.0026798248291015625,0.005448244512081146,-0.0005106329917907715
1717512949043561500,4.3005615234375,-0.0020732879638671875,0.0006168708205223083,0.00408221036195755
1717512949053568000,4.310568115234375,-0.0020399093627929688,-0.008740924298763275,0.003992840647697449
1717512949063574300,4.32057421875,-0.0020055770874023438,0.005598589777946472,0.004007954150438309
1717512949073580800,4.330580810546875,-0.0019731521606445312,0.005571670830249786,-0.000789303332567215
1717512949083587300,4.34058740234375,-0.0019407272338867188,0.01025216281414032,0.004013676196336746
1717512949093593900,4.35059375,0.00279998779296875,0.0007271915674209595,-0.0006807558238506317
1717512949103600000,4.36060009765625,-0.0019559860229492188,-0.003932081162929535,-0.0006917640566825867
1717512949113606700,4.370606689453125,0.00278472900390625,-0.003806784749031067,0.004005890339612961
1717512949123613200,4.38061328125,-0.0019702911376953125,0.005732335150241852,-0.005396384745836258
1717512949133619500,4.390619384765625,0.0027704238891601562,0.005693219602108002,-0.0053291283547878265
1717512949143626000,4.4006259765625,-0.006693840026855469,0.0009444728493690491,-0.0005544982850551605
1717512949153632500,4.410632568359375,-0.0018749237060546875,0.0009814128279685974,0.0041394829750061035
1717512949163639000,4.42063916015625,0.002864837646484375,0.001016467809677124,-0.0005577728152275085
1717512949173645300,4.430645263671875,-0.0018911361694335938,0.005757883191108704,0.0042403824627399445
1717512949183651800,4.44065185546875,0.0028476715087890625,0.001001410186290741,0.004146624356508255
1717512949193658400,4.450658447265625,0.0027990341186523438,0.005739770829677582,-0.0053628310561180115
1717512949203665000,4.460664794921875,-0.0019578933715820312,-0.0036250129342079163,-0.0052966587245464325
1717512949213671200,4.470671142578125,-0.001926422119140625,-0.0035214275121688843,-0.0052316151559352875
1717512949223677700,4.480677734375,0.007521629333496094,0.010704591870307922,0.004249539226293564
1717512949233684200,4.490684326171875,0.007396697998046875,0.010566085577011108,-0.0004498213529586792
1717512949243690500,4.5006904296875,0.0025644302368164062,0.0010110586881637573,-0.005070824176073074
1717512949253697000,4.510697021484375,-0.0068950653076171875,-0.0036773458123207092,-0.00019660592079162598
1717512949263703600,4.52070361328125,-0.002071380615234375,0.0011275410652160645,0.0044921040534973145
1717512949273710000,4.5307099609375,0.0026721954345703125,0.010559335350990295,-0.0003145672380924225
1717512949283716400,4.54071630859375,0.0026273727416992188,-0.0037106797099113464,0.004479274153709412
1717512949293723000,4.550722900390625,-0.002124786376953125,-0.003618665039539337,-0.005035977810621262
1717512949303729400,4.5607294921875,0.0026187896728515625,0.0011788159608840942,-0.00026702508330345154
1717512949313736000,4.57073583984375,0.0025739669799804688,0.010603763163089752,-0.0003886595368385315
1717512949323742200,4.5807421875,-0.0021772384643554688,0.00574386864900589,-0.00040622055530548096
1717512949333748700,4.590748779296875,-0.0021419525146484375,0.0010667070746421814,-0.005029063671827316
1717512949343755300,4.60075537109375,-0.0021066665649414062,0.0010712891817092896,-0.0048665329813957214
1717512949353761500,4.610761474609375,-0.002071380615234375,0.001074276864528656,-0.0047069936990737915
1717512949363768000,4.62076806640625,0.0026712417602539062,0.0058875903487205505,0.0048667751252651215
1717512949373774600,4.630774658203125,-0.011499404907226562,0.001099124550819397,0.00015584006905555725
1717512949383781000,4.640781005859375,0.0028181076049804688,0.010514378547668457,0.0049392543733119965
1717512949393787400,4.650787353515625,0.0027713775634765625,-0.008480332791805267,0.00012206286191940308
1717512949403794000,4.6607939453125,-0.001983642578125,0.005800269544124603,0.0000933036208152771
1717512949413800400,4.670800537109375,0.007466316223144531,0.005715660750865936,-0.004644051194190979
1717512949423807000,4.680806884765625,0.0073413848876953125,0.005630671977996826,0.004718586802482605
1717512949433813200,4.690813232421875,-0.0069065093994140625,0.0008375421166419983,0.004715051501989365
1717512949443819800,4.70081982421875,-0.00208282470703125,0.01024877279996872,-0.00010077282786369324
1717512949453826300,4.710826416015625,0.0026607513427734375,0.005376070737838745,0.004580404609441757
1717512949463832600,4.72083251953125,0.0026159286499023438,0.005395218729972839,-0.00013081729412078857
1717512949473839000,4.730839111328125,0.0072803497314453125,-0.004004351794719696,-0.00015865638852119446
1717512949483845600,4.740845703125,0.0071582794189453125,0.005586348474025726,-0.004894096404314041
1717512949493852200,4.75085205078125,0.007038116455078125,0.010307446122169495,0.0045747309923172
1717512949503858400,4.7608583984375,-0.007205963134765625,0.0008224919438362122,-0.00013817846775054932
1717512949513865000,4.770864990234375,-0.0023784637451171875,0.0009116306900978088,0.004644263535737991
1717512949523871500,4.78087158203125,-0.002338409423828125,0.010312005877494812,-0.00017386674880981445
1717512949533878000,4.7908779296875,-0.002300262451171875,0.005531959235668182,0.004505142569541931
1717512949543884300,4.80088427734375,-0.0022630691528320312,0.0055389404296875,-0.00020809099078178406
1717512949553890800,4.810890869140625,0.002483367919921875,0.0007326453924179077,0.0044708214700222015
1717512949563897300,4.8208974609375,0.0071506500244140625,0.005421958863735199,-0.0003467574715614319
1717512949573903600,4.830903564453125,0.002323150634765625,0.0006149858236312866,-0.005083370953798294
1717512949583910100,4.84091015625,-0.0024242401123046875,-0.004113204777240753,-0.00022088363766670227
1717512949593916700,4.850916748046875,0.0023241043090820312,0.0007565394043922424,-0.004856951534748077
1717512949603923200,4.860923095703125,-0.007132530212402344,0.005543798208236694,0.004606444388628006
1717512949613929500,4.870929443359375,0.007111549377441406,0.005541324615478516,0.004494622349739075
1717512949623936000,4.88093603515625,0.006992340087890625,0.010246135294437408,-0.000324200838804245
1717512949633942500,4.890942626953125,0.0021657943725585938,0.005453966557979584,-0.00035433098673820496
1717512949643949000,4.900948974609375,0.0021295547485351562,0.0006369873881340027,-0.0003841221332550049
1717512949653955300,4.910955322265625,0.002094268798828125,0.0006070807576179504,-0.005123112350702286
1717512949663961900,4.9209619140625,-0.0026493072509765625,0.0005762502551078796,-0.005074582993984222
1717512949673968400,4.930968505859375,-0.007313728332519531,0.005253501236438751,0.004391312599182129
1717512949683974700,4.940974609375,0.0022249221801757812,0.0004345551133155823,-0.0005286149680614471
1717512949693981200,4.950981201171875,0.0021877288818359375,0.00040271878242492676,0.008861612528562546
1717512949703987700,4.96098779296875,-0.0025587081909179688,0.005181886255741119,0.003969665616750717
1717512949713994200,4.970994140625,0.006901741027832031,-0.004349082708358765,-0.0007373020052909851
1717512949724000500,4.98100048828125,-0.0026311874389648438,0.005215071141719818,-0.005468890070915222
1717512949734007000,4.991007080078125,-0.0072956085205078125,0.0003893822431564331,0.004004418849945068
1717512949744013600,5.001013671875,-0.0071735382080078125,0.00035140663385391235,-0.0007023923099040985
1717512949754020000,5.01102001953125,0.0023622512817382812,0.0004160776734352112,0.003983452916145325
1717512949764026400,5.0210263671875,-0.0023870468139648438,0.00047847628593444824,-0.00553426519036293
1717512949774033000,5.031032958984375,-0.0023469924926757812,0.00524728000164032,0.004044674336910248
1717512949784039400,5.041039306640625,-0.0070171356201171875,0.00522729754447937,0.003944866359233856
1717512949794046000,5.0510458984375,-0.0021905899047851562,-0.0043142735958099365,-0.005467794835567474
1717512949804052200,5.06105224609375,-0.002155303955078125,-0.004177354276180267,0.008716538548469543
1717512949814058800,5.071058837890625,-0.0021190643310546875,0.005270242691040039,0.003830496221780777
1717512949824065300,5.081065185546875,0.0026235580444335938,0.0005369558930397034,-0.0009736865758895874
1717512949834071600,5.091071533203125,-0.0068378448486328125,0.0005902573466300964,-0.0009887628257274628
1717512949844078000,5.101078125,0.0026941299438476562,0.0052471160888671875,-0.0008998624980449677
1717512949854084600,5.111084716796875,-0.0020599365234375,0.005220197141170502,-0.0009152553975582123
1717512949864091100,5.121091064453125,-0.0020265579223632812,0.005192913115024567,-0.0009299144148826599
1717512949874097400,5.131097412109375,-0.0019922256469726562,0.00035303831100463867,0.00386703759431839
1717512949884104000,5.14110400390625,0.0027494430541992188,0.0004053562879562378,0.0038769133388996124
1717512949894110500,5.1511103515625,-0.0020046234130859375,0.005061432719230652,0.003783807158470154
1717512949904117000,5.161116943359375,0.0027370452880859375,0.005033537745475769,-0.0009136423468589783
1717512949914123300,5.171123291015625,-0.0020170211791992188,0.00019400566816329956,-0.005634687840938568
1717512949924129800,5.1811298828125,0.0027256011962890625,0.004955008625984192,-0.005464822053909302
1717512949934136300,5.19113623046875,0.0026798248291015625,-0.004592984914779663,-0.0006921738386154175
1717512949944142600,5.201142578125,0.0026340484619140625,0.0049552395939826965,-0.005416024476289749
1717512949954149000,5.211149169921875,-0.0021190643310546875,0.00021798163652420044,-0.005352366715669632
1717512949964155600,5.22115576171875,-0.0020837783813476562,0.00026770681142807007,-0.00047777220606803894
1717512949974162200,5.231162109375,0.0026597976684570312,0.000212743878364563,-0.0004962235689163208
1717512949984168400,5.24116845703125,0.0026149749755859375,0.0002613961696624756,-0.0005143433809280396
1717512949994175000,5.251175048828125,0.0025720596313476562,0.00020538270473480225,0.004279695451259613
1717512950004181500,5.261181396484375,0.0025281906127929688,0.00025259703397750854,-0.0005276910960674286
1717512950014188000,5.27118798828125,-0.0022220611572265625,0.005007430911064148,-0.0004421733319759369
1717512950024194300,5.2811943359375,0.0025234222412109375,0.00016195327043533325,0.00414382666349411
1717512950034200800,5.291200927734375,0.0024814605712890625,0.00020854920148849487,-0.0005574040114879608
1717512950044207400,5.301207275390625,0.00714874267578125,0.00025381147861480713,-0.0004718564450740814
1717512950054213600,5.311213623046875,0.0023202896118164062,0.005005970597267151,0.004216384142637253
1717512950064220200,5.32122021484375,-0.0024271011352539062,0.00026157498359680176,0.0042219385504722595
1717512950074226700,5.331226806640625,-0.00238800048828125,-0.00440429151058197,-0.0052933283150196075
1717512950084233200,5.341233154296875,0.0023593902587890625,0.009841829538345337,0.004185095429420471
1717512950094239500,5.351239501953125,0.0070285797119140625,0.005015730857849121,0.008899234235286713
1717512950104246000,5.36124609375,0.0022020339965820312,0.00026854127645492554,0.004012688994407654
1717512950114252500,5.37125244140625,0.0021657943725585938,0.0003088638186454773,-0.0006884932518005371
1717512950124259000,5.381259033203125,0.0021295547485351562,-0.004360683262348175,-0.0006030984222888947
1717512950134265300,5.391265380859375,0.0020933151245117188,-0.0042444318532943726,-0.0006228163838386536
1717512950144272000,5.40127197265625,0.006766319274902344,0.005286820232868195,-0.0006416365504264832
1717512950154278400,5.4112783203125,0.0019435882568359375,0.005241364240646362,-0.0006605647504329681
1717512950164284700,5.42128466796875,-0.0027990341186523438,0.0005902573466300964,-0.0006805844604969025
1717512950174291200,5.431291259765625,0.0019550323486328125,0.01003844290971756,-0.0007006712257862091
1717512950184297700,5.441297607421875,0.0019235610961914062,0.0003902912139892578,0.00398680567741394
1717512950194304300,5.45130419921875,0.006598472595214844,0.0005258917808532715,-0.005529981106519699
1717512950204310500,5.461310546875,-0.007637977600097656,0.009973056614398956,0.003947898745536804
1717512950214317000,5.471317138671875,0.0019063949584960938,0.0004270598292350769,0.003952614963054657
1717512950224323600,5.481323486328125,-0.0028352737426757812,0.009873621165752411,-0.005563497543334961
1717512950234330000,5.491330078125,-0.007496833801269531,0.00032735615968704224,-0.0007954686880111694
1717512950244336400,5.50133642578125,-0.0073719024658203125,0.00035675615072250366,-0.000814732164144516
1717512950254343000,5.511343017578125,0.006876945495605469,0.0003842189908027649,0.008685614913702011
1717512950264349400,5.521349365234375,0.0020532608032226562,0.000409737229347229,0.0037973858416080475
1717512950274355700,5.531355712890625,-0.002689361572265625,0.000434093177318573,0.0038033537566661835
1717512950284362200,5.5413623046875,0.002063751220703125,-0.004251718521118164,-0.005608111619949341
1717512950294368800,5.55136865234375,0.0020303726196289062,0.00045327842235565186,-0.0008403509855270386
1717512950304375300,5.561375244140625,0.006705284118652344,0.005181945860385895,0.0038478299975395203
1717512950314381600,5.571381591796875,-0.0028238296508789062,0.00041340291500091553,0.008457764983177185
1717512950324388000,5.58138818359375,-0.002777099609375,0.00043173134326934814,-0.0011349990963935852
1717512950334394600,5.59139453125,0.0019779205322265625,0.00044855475425720215,-0.0058593302965164185
1717512950344401200,5.601401123046875,0.00194549560546875,-0.004347957670688629,-0.005693070590496063
1717512950354407400,5.611407470703125,-0.0027952194213867188,0.00045517832040786743,-0.0009232759475708008
1717512950364414000,5.6214140625,-0.007456779479980469,0.005177147686481476,0.003767050802707672
1717512950374420500,5.63142041015625,0.0020847320556640625,0.00511033833026886,0.0037729479372501373
1717512950384426800,5.6414267578125,-0.0026597976684570312,0.00043827295303344727,-0.0009297691285610199
1717512950394433300,5.651433349609375,0.006801605224609375,0.0004483535885810852,0.0038631856441497803
1717512950404439800,5.661439697265625,0.001979827880859375,0.005165845155715942,-0.005652721971273422
1717512950414446300,5.6714462890625,-0.0027618408203125,0.005095131695270538,-0.0008841454982757568
1717512950424452600,5.68145263671875,-0.002716064453125,0.005024656653404236,-0.0008002743124961853
1717512950434459100,5.691459228515625,-0.0026712417602539062,0.004954442381858826,0.008596181869506836
1717512950444465700,5.701465576171875,0.0020818710327148438,-0.004532665014266968,0.0038135722279548645
1717512950454472200,5.71147216796875,-0.007369041442871094,0.00016000866889953613,0.0037160031497478485
1717512950464478500,5.721478515625,0.002170562744140625,-0.004540212452411652,-0.000985264778137207
1717512950474485000,5.731485107421875,-0.0025739669799804688,0.0002543628215789795,-0.0008996166288852692
1717512950484491500,5.741491455078125,-0.0025320053100585938,0.005071654915809631,-0.0008154809474945068
1717512950494497800,5.751497802734375,-0.002490997314453125,0.00039120763540267944,0.003976717591285706
1717512950504504300,5.76150439453125,0.0069675445556640625,0.0003926903009414673,-0.000833611935377121
1717512950514510800,5.7715107421875,-0.0025653839111328125,0.009811140596866608,0.003957469016313553
1717512950524517400,5.781517333984375,-0.0025224685668945312,0.009654849767684937,-0.005457382649183273
1717512950534523600,5.791523681640625,0.0022268295288085938,0.00018668919801712036,-0.0006931386888027191
1717512950544530200,5.8015302734375,0.006897926330566406,0.004898294806480408,-0.0007172562181949615
1717512950554536700,5.81153662109375,0.0020742416381835938,0.004822224378585815,0.003967247903347015
1717512950564543200,5.821543212890625,0.0020389556884765625,0.0001415461301803589,-0.010261110961437225
1717512950574549500,5.831549560546875,-0.0027036666870117188,0.00956042855978012,-0.0007107630372047424
1717512950584556000,5.84155615234375,0.0067577362060546875,0.0046963319182395935,-0.0008394941687583923
1717512950594562600,5.8515625,0.0019369125366210938,-0.009504489600658417,-0.00546853244304657
1717512950604568800,5.86156884765625,0.0066127777099609375,0.00007371604442596436,-0.0007069259881973267
1717512950614575400,5.871575439453125,0.00179290771484375,0.004886336624622345,0.008683506399393082
1717512950624582000,5.881581787109375,0.0017633438110351562,0.004806190729141235,-0.0008140727877616882
1717512950634588400,5.89158837890625,-0.0029745101928710938,-0.004690513014793396,-0.0008398368954658508
1717512950644594700,5.9015947265625,0.0017833709716796875,0.009513340890407562,0.003946349024772644
1717512950654601200,5.911601318359375,-0.007664680480957031,0.00004044175148010254,-0.0007637813687324524
1717512950664607700,5.921607666015625,-0.0028285980224609375,-0.004670366644859314,-0.0007914267480373383
1717512950674614300,5.9316142578125,0.001926422119140625,0.009634263813495636,-0.005527526140213013
1717512950684620500,5.94162060546875,0.0018939971923828125,-0.004654742777347565,-0.00066351518034935
1717512950694627000,5.951626953125,0.0065708160400390625,0.004836216568946838,-0.0054023377597332
1717512950704633600,5.961633544921875,-0.002956390380859375,-0.004562892019748688,-0.0005419701337814331
1717512950714640100,5.97164013671875,-0.0029077529907226562,0.005028203129768372,0.0041338540613651276
1717512950724646700,5.981646728515625,-0.007568359375,0.00033277273178100586,-0.0005824007093906403
1717512950734653200,5.991653076171875,-0.0027341842651367188,-0.0042853206396102905,0.004093654453754425
1717512950744659700,6.00165966796875,-0.002689361572265625,0.005298353731632233,-0.0006223171949386597
1717512950754666200,6.011666259765625,-0.0026454925537109375,0.0005954727530479431,-0.0005512349307537079
1717512950764672800,6.0216728515625,0.0021076202392578125,0.005283817648887634,-0.0005847439169883728
1717512950774679300,6.03167919921875,0.002071380615234375,0.0005789920687675476,0.0040908195078372955
1717512950784685800,6.041685791015625,-0.0026721954345703125,0.010077215731143951,-0.00062551349401474
1717512950794692400,6.0516923828125,-0.007336616516113281,0.00047825276851654053,-0.0006579495966434479
1717512950804699000,6.061698974609375,0.0022029876708984375,0.005164220929145813,-0.0006888546049594879
1717512950814705400,6.071705322265625,-0.0025434494018554688,0.0004569143056869507,-0.0053245387971401215
1717512950824712000,6.0817119140625,-0.0025014877319335938,0.014557495713233948,-0.0004667416214942932
1717512950834718200,6.09171826171875,0.0069561004638671875,0.004982069134712219,-0.00039850175380706787
1717512950844724700,6.101724853515625,0.0021305084228515625,0.00027351081371307373,0.004273887723684311
1717512950854731300,6.111731201171875,-0.0026149749755859375,0.0003506764769554138,0.004263028502464294
1717512950864737800,6.12173779296875,0.006844520568847656,0.0004251822829246521,-0.005164939910173416
1717512950874744300,6.131744384765625,-0.007396697998046875,0.0004970207810401917,0.004295196384191513
1717512950884750800,6.141750732421875,0.0021429061889648438,0.0052748024463653564,-0.0005282983183860779
1717512950894757400,6.15175732421875,-0.0073089599609375,-0.004257604479789734,0.0042488835752010345
1717512950904764000,6.161763916015625,-0.00247955322265625,-0.0041125863790512085,-0.0004719644784927368
1717512950914770400,6.1717705078125,-0.0024394989013671875,0.005446039140224457,-0.0004047788679599762
1717512950924777000,6.18177685546875,0.0023088455200195312,0.0007183626294136047,-0.00985846295952797
1717512950934783500,6.191783447265625,0.002269744873046875,0.0007760748267173767,-0.0003214888274669647
1717512950944790000,6.2017900390625,-0.0024766921997070312,0.0055397674441337585,-0.000257689505815506
1717512950954796300,6.21179638671875,0.0022735595703125,0.00541049987077713,0.004410039633512497
1717512950964802800,6.221802734375,0.0022363662719726562,-0.004135496914386749,0.004394315183162689
1717512950974809300,6.231809326171875,-0.0025091171264648438,0.0006017014384269714,-0.0005366615951061249
1717512950984815900,6.24181591796875,-0.0024671554565429688,0.00525829941034317,-0.009991101920604706
1717512950994822100,6.251822265625,0.011699676513671875,0.0005217567086219788,-0.0003506317734718323
1717512951004828700,6.26182861328125,0.0020885467529296875,0.005176521837711334,-0.0002883300185203552
1717512951014835200,6.271835205078125,0.0020532608032226562,0.0004379004240036011,-0.0049369558691978455
1717512951024841700,6.281841796875,0.0020189285278320312,0.0004862099885940552,-0.004797816276550293
1717512951034848000,6.291847900390625,-0.0027246475219726562,-0.0041766539216041565,0.009360209107398987
1717512951044854500,6.3018544921875,0.00673675537109375,0.0006544440984725952,-0.00026002898812294006
1717512951054861000,6.311861083984375,0.0019159317016601562,0.0006947517395019531,-0.00020074471831321716
1717512951064867300,6.321867431640625,0.00188446044921875,-0.004078760743141174,-0.00024604424834251404
1717512951074873900,6.331873779296875,0.0018529891967773438,0.0007469281554222107,-0.00018661469221115112
1717512951084880400,6.34188037109375,-0.002887725830078125,0.0007820054888725281,0.004475854337215424
1717512951094887000,6.351886962890625,0.0065765380859375,0.0008157342672348022,0.009061329066753387
1717512951104893200,6.36189306640625,0.001758575439453125,0.005555979907512665,-0.00045336782932281494
1717512951114899700,6.371899658203125,-0.0029802322387695312,0.005507528781890869,-0.005204398185014725
1717512951124906200,6.38190625,-0.0029315948486328125,0.000750228762626648,0.004249349236488342
1717512951134912800,6.391912841796875,0.006535530090332031,0.0006765127182006836,-0.0004771389067173004
1717512951144919000,6.4019189453125,-0.0076999664306640625,0.005414940416812897,-0.009936872869729996
1717512951154925600,6.411925537109375,0.0018453598022460938,-0.004052326083183289,0.004407212138175964
1717512951164932000,6.42193212890625,0.0018138885498046875,0.005471676588058472,0.004283066838979721
1717512951174938400,6.4319384765625,-0.0029249191284179688,0.005418896675109863,-0.00044436752796173096
1717512951184945000,6.44194482421875,-0.0028772354125976562,-0.00405101478099823,0.004220880568027496
1717512951194951400,6.451951416015625,0.0018796920776367188,0.0007619038224220276,0.0042030587792396545
1717512951204958000,6.4619580078125,0.0018482208251953125,0.01020321249961853,0.00418553501367569
1717512951214964200,6.471964111328125,0.011234283447265625,0.005360275506973267,-0.0005392581224441528
1717512951224970800,6.481970703125,-0.0030794143676757812,0.0005969405174255371,-0.0005809701979160309
1717512951234977300,6.491977294921875,0.0016794204711914062,0.0006215944886207581,-0.0006219856441020966
1717512951244983800,6.50198388671875,-0.0030584335327148438,0.010165229439735413,-0.0052666254341602325
1717512951254990000,6.511989990234375,0.0017023086547851562,0.0005076602101325989,0.004290927201509476
1717512951264996600,6.52199658203125,-0.00774383544921875,-0.004177860915660858,0.004168681800365448
1717512951275003100,6.532003173828125,-0.00290679931640625,0.005339674651622772,-0.005368735641241074
1717512951285009400,6.542009521484375,0.001850128173828125,0.0005719587206840515,-0.0005181245505809784
1717512951295016000,6.552015869140625,0.006526947021484375,0.005300439894199371,-0.0005592405796051025
1717512951305022500,6.5620224609375,0.0064182281494140625,0.005240276455879211,-0.005205966532230377
1717512951315029000,6.572029052734375,0.0016031265258789062,0.00518026202917099,0.004350550472736359
1717512951325035300,6.58203515625,0.0062847137451171875,0.0004117637872695923,0.008935905992984772
1717512951335041800,6.592041748046875,-0.0032367706298828125,-0.004278138279914856,-0.0006809569895267487
1717512951345048300,6.60204833984375,0.0015268325805664062,0.00042354315519332886,-0.0007193423807621002
1717512951355054800,6.612054931640625,0.006211280822753906,0.0003373846411705017,-0.0007570721209049225
1717512951365061000,6.62206103515625,-0.0033092498779296875,0.00035472214221954346,-0.0007951445877552032
1717512951375067600,6.632067626953125,0.0014543533325195312,-0.004337631165981293,-0.0008325427770614624
1717512951385074200,6.64207421875,-0.007987022399902344,0.005173221230506897,-0.005577851086854935
1717512951395080400,6.65208056640625,0.0015630722045898438,0.00039900094270706177,-0.0007235072553157806
1717512951405087000,6.6620869140625,0.010953903198242188,0.00041219592094421387,-0.0007618553936481476
1717512951415093500,6.672093505859375,-0.003353118896484375,0.005029760301113129,0.008721038699150085
1717512951425100000,6.68210009765625,-0.0032978057861328125,-0.004349537193775177,-0.0007883720099925995
1717512951435106300,6.692106201171875,-0.00324249267578125,-0.004259280860424042,0.008591942489147186
1717512951445112800,6.70211279296875,0.0015201568603515625,-0.0041711777448654175,-0.001018330454826355
1717512951455119400,6.712119384765625,-0.0032138824462890625,0.0053320154547691345,-0.005759667605161667
1717512951465126000,6.7221259765625,0.006257057189941406,0.0005508139729499817,-0.001003604382276535
1717512951475132200,6.732132080078125,0.0014438629150390625,0.005265913903713226,-0.0057437606155872345
1717512951485138700,6.742138671875,-0.0032892227172851562,-0.004223920404911041,-0.0008841603994369507
1717512951495145200,6.752145263671875,0.0014743804931640625,0.00998646765947342,-0.0008148476481437683
1717512951505151500,6.7621513671875,0.0014495849609375,0.005125127732753754,-0.0008496604859828949
1717512951515158000,6.772157958984375,0.0014247894287109375,0.00515621155500412,-0.0008835531771183014
1717512951525164500,6.78216455078125,-0.008016586303710938,0.005083024501800537,-0.0009165070950984955
1717512951535171000,6.792171142578125,-0.0031747817993164062,0.0003019869327545166,-0.0009485110640525818
1717512951545177300,6.80217724609375,0.0015859603881835938,0.005017369985580444,-0.00579143688082695
1717512951555183900,6.812183837890625,-0.0031490325927734375,0.004945121705532074,0.003675907850265503
1717512951565190400,6.8221904296875,0.0016117095947265625,0.004873640835285187,-0.005745109170675278
1717512951575197000,6.832197021484375,-0.007832527160644531,0.00009474903345108032,-0.0009866096079349518
1717512951585203200,6.842203125,-0.0029935836791992188,0.00010365992784500122,-0.005722407251596451
1717512951595209700,6.852209716796875,0.0017652511596679688,0.004820235073566437,-0.000962425023317337
1717512951605216300,6.86221630859375,-0.007681846618652344,-0.004564307630062103,-0.0008870847523212433
1717512951615222500,6.872222412109375,-0.012262344360351562,0.004937812685966492,-0.0009149014949798584
1717512951625229000,6.88222900390625,0.00206756591796875,0.00015616416931152344,-0.0008379705250263214
1717512951635235600,6.892235595703125,0.006741523742675781,0.00957915186882019,-0.0007626190781593323
1717512951645242000,6.9022421875,-0.002788543701171875,0.000112973153591156,-0.0007904507219791412
1717512951655248400,6.912248291015625,0.0019655227661132812,0.0049302056431770325,-0.005524761974811554
1717512951665255000,6.9222548828125,0.0019321441650390625,0.009666182100772858,-0.0007633306086063385
1717512951675261400,6.932261474609375,-0.0028095245361328125,0.004905760288238525,0.0039203837513923645
1717512951685268000,6.94226806640625,0.00194549560546875,0.00012029707431793213,-0.0007882341742515564
1717512951695274200,6.952274169921875,-0.007504463195800781,0.009539633989334106,-0.0007091350853443146
1717512951705280800,6.96228076171875,-0.0026712417602539062,0.009384781122207642,-0.0007346384227275848
1717512951715287300,6.972287353515625,-0.0026273727416992188,0.00462593138217926,-0.000654224306344986
1717512951725293600,6.98229345703125,0.0021238327026367188,-0.00005399435758590698,0.004132449626922607
1717512951735300000,6.992300048828125,-0.0026197433471679688,-0.00005205720663070679,0.008841391652822495
1717512951745306600,7.002306640625,0.002132415771484375,0.004657067358493805,-0.0006544925272464752
1717512951755313200,7.012313232421875,0.0020971298217773438,0.009286671876907349,-0.000677797943353653
1717512951765319400,7.0223193359375,0.0020618438720703125,-0.009704932570457458,-0.0007003657519817352
1717512951775326000,7.032325927734375,-0.002681732177734375,0.009391359984874725,-0.0006179623305797577
1717512951785332500,7.04233251953125,-0.0026369094848632812,0.009230613708496094,-0.0005366839468479156
1717512951795339000,7.052339111328125,0.0021152496337890625,-0.0003457590937614441,0.0042520128190517426
1717512951805345300,7.06234521484375,0.0020799636840820312,-0.009764030575752258,0.004148103296756744
1717512951815351800,7.072351806640625,-0.0026636123657226562,0.009226247668266296,-0.000559389591217041
1717512951825358300,7.0823583984375,-0.0026197433471679688,-0.004959121346473694,0.004228696227073669
1717512951835364600,7.092364501953125,0.002132415771484375,-0.009594902396202087,-0.00047938525676727295
1717512951845371100,7.10237109375,0.0020971298217773438,-0.000028774142265319824,-0.0005039386451244354
1717512951855377700,7.112377685546875,-0.0026464462280273438,0.00937679409980774,-0.005133744329214096
1717512951865384200,7.12238427734375,-0.0026025772094726562,0.004498682916164398,-0.005081497132778168
1717512951875390500,7.132390380859375,0.0021495819091796875,-0.00029962509870529175,-0.00032301992177963257
1717512951885397000,7.14239697265625,0.00211334228515625,-0.0003104358911514282,-0.00506158173084259
1717512951895403500,7.152403564453125,-0.0026302337646484375,0.004386484622955322,-0.00030454620718955994
1717512951905410000,7.16241015625,0.0021219253540039062,-0.005121283233165741,-0.005043569952249527
1717512951915416300,7.172416259765625,0.002086639404296875,-0.005054734647274017,-0.00028803199529647827
1717512951925422800,7.1824228515625,0.0020532608032226562,0.009032346308231354,-0.005029559135437012
1717512951935429400,7.192429443359375,-0.0026874542236328125,0.004049479961395264,-0.004880812019109726
1717512951945435600,7.202435546875,-0.007350921630859375,-0.0007473304867744446,-0.00473417341709137
1717512951955442200,7.212442138671875,-0.0025196075439453125,-0.0007565468549728394,-0.0045916251838207245
1717512951965448700,7.22244873046875,0.0022296905517578125,-0.0006627887487411499,0.00015321001410484314
1717512951975455200,7.232455322265625,0.0021924972534179688,-0.0006742477416992188,-0.004495590925216675
1717512951985461500,7.24246142578125,0.0021562576293945312,0.0040230825543403625,0.0002469941973686218
1717512951995468000,7.252468017578125,0.006829261779785156,-0.0054841116070747375,0.00030395761132240295
1717512952005474600,7.262474609375,0.0067157745361328125,0.008710026741027832,0.005067966878414154
1717512952015481000,7.272481201171875,-0.0028142929077148438,-0.0007721260190010071,0.0003347843885421753
1717512952025487400,7.2824873046875,0.006649971008300781,0.003926672041416168,0.00028681010007858276
1717512952035494000,7.292493896484375,0.0018301010131835938,-0.005578480660915375,0.00013518333435058594
1717512952045500400,7.30250048828125,0.0017986297607421875,-0.005404964089393616,-0.004517491906881332
1717512952055506700,7.312506591796875,0.0017681121826171875,0.004183053970336914,0.0003240741789340973
1717512952065513200,7.32251318359375,-0.0029706954956054688,0.013611271977424622,0.004981663078069687
1717512952075519700,7.332519775390625,0.0017862319946289062,0.004048824310302734,0.0001445375382900238
1717512952085526300,7.3425263671875,0.006464958190917969,-0.0007487088441848755,0.0000962577760219574
1717512952095532500,7.352532470703125,0.0016489028930664062,0.00395115464925766,0.00015176087617874146
1717512952105539000,7.3625390625,-0.007796287536621094,-0.0007409900426864624,0.00010278820991516113
1717512952115545600,7.372545654296875,0.001750946044921875,-0.0007498040795326233,0.00015670806169509888
1717512952125552000,7.38255224609375,0.001720428466796875,-0.0006549954414367676,-0.00460231676697731
1717512952135558400,7.392558349609375,0.0016908645629882812,0.00885559618473053,0.009655524045228958
1717512952145565000,7.40256494140625,0.0016613006591796875,-0.0006266087293624878,0.000132635235786438
1717512952155571500,7.412571533203125,0.006340980529785156,-0.0005335062742233276,0.004790864884853363
1717512952165578000,7.422577880859375,-0.00318145751953125,0.0041633471846580505,0.00005744025111198425
1717512952175584300,7.432584228515625,-0.0031280517578125,-0.0006352812051773071,0.00011150538921356201
1717512952185590800,7.4425908203125,0.0016326904296875,-0.005354136228561401,0.004873007535934448
1717512952195597300,7.452597412109375,-0.0031042098999023438,0.00423450767993927,0.000034499913454055786
1717512952205603600,7.462603515625,0.0063648223876953125,-0.0005660504102706909,0.004693668335676193
1717512952215610000,7.472610107421875,0.0062580108642578125,0.004233889281749725,-0.004747319966554642
1717512952225616600,7.48261669921875,0.006153106689453125,-0.00046422332525253296,-0.004717383533716202
1717512952235623200,7.492623046875,0.010759353637695312,-0.00047925859689712524,-0.004584815353155136
1717512952245629400,7.50262939453125,0.0011615753173828125,0.009025827050209045,0.0002539828419685364
1717512952255636000,7.512635986328125,0.0058498382568359375,-0.00046259909868240356,0.0002000853419303894
1717512952265642500,7.522642578125,-0.0036649703979492188,-0.005188338458538055,0.00956413522362709
1717512952275649000,7.53264892578125,0.0011034011840820312,-0.0003156810998916626,0.00464620441198349
1717512952285655300,7.5426552734375,0.005793571472167969,0.004371576011180878,-0.0001898631453514099
1717512952295661800,7.552661865234375,-0.003719329833984375,0.008979767560958862,0.004575077444314957
1717512952305668400,7.56266845703125,-0.0036563873291015625,0.004092969000339508,0.004551924765110016
1717512952315674600,7.572674560546875,-0.0035943984985351562,0.003995217382907867,0.004529085010290146
1717512952325681200,7.58268115234375,-0.008243560791015625,-0.005415797233581543,-0.00030534714460372925
1717512952335687700,7.592687744140625,-0.003398895263671875,-0.00525335967540741,-0.0002463981509208679
1717512952345694200,7.602694091796875,0.0013666152954101562,-0.0003864169120788574,0.004622343927621841
1717512952355700500,7.612700439453125,0.006051063537597656,-0.0003097802400588989,-0.00021297484636306763
1717512952365707000,7.62270703125,0.0012416839599609375,-0.00023581832647323608,-0.00015699118375778198
1717512952375713500,7.632713623046875,0.0012216567993164062,0.004441201686859131,0.0046064592897892
1717512952385720000,7.642719970703125,0.0012006759643554688,-0.00027363747358322144,-0.00022997334599494934
1717512952395726300,7.652726318359375,0.0011806488037109375,-0.0003066062927246094,-0.004986286163330078
1717512952405732900,7.66273291015625,-0.0035457611083984375,0.004265293478965759,-0.00014310702681541443
1717512952415739400,7.672739501953125,0.001220703125,0.008966639637947083,-0.00019280984997749329
1717512952425745700,7.68274560546875,0.0012006759643554688,0.004172429442405701,0.004570208489894867
1717512952435752200,7.692752197265625,0.0011806488037109375,0.004061676561832428,0.009149998426437378
1717512952445758700,7.7027587890625,0.005870819091796875,-0.0007570534944534302,-0.0003703087568283081
1717512952455765200,7.71276513671875,-0.0036439895629882812,0.004025012254714966,-0.0003129914402961731
1717512952465771500,7.722771484375,-0.0035829544067382812,0.0040176063776016235,0.004450693726539612
1717512952475778000,7.732778076171875,0.005894660949707031,-0.005510888993740082,-0.0002824924886226654
1717512952485784600,7.74278466796875,0.0010881423950195312,-0.0007551014423370361,-0.0003307722508907318
1717512952495791000,7.752791015625,0.005778312683105469,-0.0006849244236946106,0.004432331770658493
1717512952505797400,7.76279736328125,0.0009737014770507812,-0.005428418517112732,-0.0004047490656375885
1717512952515804000,7.772803955078125,-0.0037517547607421875,-0.005281530320644379,-0.000452924519777298
1717512952525810400,7.782810546875,0.0010194778442382812,-0.005137220025062561,0.004312288016080856
1717512952535816700,7.792816650390625,0.001003265380859375,-0.00039090216159820557,-0.00042045488953590393
1717512952545823200,7.8028232421875,-0.00843048095703125,-0.0003294423222541809,0.004342526197433472
1717512952555829800,7.812829833984375,-0.0035800933837890625,-0.0003723427653312683,-0.00509905070066452
1717512952565836300,7.822836181640625,0.0011882781982421875,-0.00031203776597976685,-0.00025887414813041687
1717512952575842600,7.832842529296875,-0.0035390853881835938,0.009060755372047424,-0.000208389014005661
1717512952585849000,7.84284912109375,0.0059356689453125,0.004254825413227081,-0.00026147812604904175
1717512952595855600,7.852855712890625,-0.0035800933837890625,-0.0005746707320213318,-0.0003141351044178009
1717512952605862100,7.862862060546875,0.00589752197265625,0.004093192517757416,-0.00026306137442588806
1717512952615868400,7.872868408203125,0.00109100341796875,-0.0006309375166893005,0.009203925728797913
1717512952625875000,7.882875,0.0010728836059570312,-0.005276717245578766,0.004386331886053085
1717512952635881500,7.892881591796875,0.005763053894042969,0.013697430491447449,0.004253499209880829
1717512952645887700,7.9028876953125,0.005665779113769531,-0.0006050318479537964,0.004122477024793625
1717512952655894300,7.912894287109375,0.00086212158203125,-0.005251720547676086,0.003994252532720566
1717512952665900800,7.92290087890625,-0.0038604736328125,-0.005216263234615326,-0.0008418038487434387
1717512952675907300,7.9329072265625,0.015039443969726562,-0.00047262758016586304,-0.0007847025990486145
1717512952685913600,7.94291357421875,0.0006628036499023438,0.004294663667678833,0.0039787255227565765
1717512952695920000,7.952920166015625,-0.004057884216308594,0.004273697733879089,0.0038505569100379944
1717512952705926700,7.9629267578125,0.0007181167602539062,-0.0004553571343421936,-0.0008800514042377472
1717512952715933200,7.97293310546875,0.000705718994140625,-0.0005009174346923828,-0.0009277798235416412
1717512952725939500,7.982939453125,0.0006952285766601562,0.00416303426027298,0.003837965428829193
1717512952735946000,7.992946044921875,-0.004024505615234375,-0.0005652680993080139,-0.0008941106498241425
