time,seconds_elapsed,z,y,x
1717512993704587800,0.124587890625,-0.00000762939453125,0.04804397374391556,-0.005117960274219513
1717512993714525000,0.13452490234375,0.004294395446777344,0.044471126049757004,-0.014186104759573936
1717512993724497000,0.144496826171875,-0.000457763671875,0.04603007063269615,-0.009421952068805695
1717512993734504000,0.15450390625,0.008349418640136719,0.04784708842635155,-0.013915251940488815
1717512993744544300,0.164544189453125,-0.0011434555053710938,0.03669997304677963,-0.004903733730316162
1717512993754615600,0.174615478515625,0.0033731460571289062,0.03546454384922981,-0.010005095973610878
1717512993764713700,0.184713623046875,0.0031366348266601562,0.03449712693691254,-0.005882099270820618
1717512993774834200,0.194834228515625,0.0074176788330078125,0.03374786674976349,-0.011022401973605156
1717512993784971500,0.204971435546875,-0.0020427703857421875,0.03307687118649483,-0.006893083453178406
1717512993795119600,0.21511962890625,0.007103919982910156,0.03266018629074097,-0.007539983838796616
1717512993805272600,0.2252724609375,0.0021820068359375,0.036903686821460724,-0.012713110074400902
1717512993815394800,0.235394775390625,-0.007037162780761719,0.041033223271369934,-0.013110795989632607
1717512993825401300,0.2454013671875,-0.006712913513183594,0.03583187609910965,-0.01807093620300293
1717512993835407600,0.25540771484375,0.007292747497558594,0.035619013011455536,-0.013705814257264137
1717512993845414100,0.2654140625,0.0023822784423828125,0.03558982163667679,-0.014138463884592056
1717512993855420700,0.275420654296875,0.0022706985473632812,0.03552872687578201,-0.014680428430438042
1717512993865427200,0.28542724609375,0.0021686553955078125,0.040028028190135956,-0.01052865944802761
1717512993875433700,0.295433837890625,0.0020732879638671875,0.030706651508808136,-0.01566104218363762
1717512993885440000,0.30543994140625,-0.0026264190673828125,0.030998140573501587,-0.01160651445388794
1717512993895446500,0.315446533203125,-0.002544403076171875,0.03593919426202774,-0.021463703364133835
1717512993905453000,0.325453125,0.011402130126953125,0.03613268584012985,-0.012413274496793747
1717512993915459300,0.335459228515625,0.0017538070678710938,0.03636261820793152,-0.013039011508226395
1717512993925465900,0.3454658203125,0.0063190460205078125,0.031991466879844666,-0.013761268928647041
1717512993935472400,0.355472412109375,0.0061092376708984375,0.02789214998483658,-0.014271335676312447
1717512993945479000,0.36547900390625,0.00591278076171875,0.02848590537905693,-0.01942319981753826
1717512993955485200,0.375485107421875,0.0010805130004882812,0.033735986799001694,-0.024441389366984367
1717512993965491700,0.38549169921875,0.005690574645996094,0.03421369940042496,-0.015484519302845001
1717512993975498200,0.395498291015625,0.0008649826049804688,0.03946356475353241,-0.0162019245326519
1717512993985504800,0.4055048828125,0.0008306503295898438,0.030522972345352173,-0.016810331493616104
1717512993995511000,0.415510986328125,0.000797271728515625,0.04525429755449295,-0.021974598988890648
1717512994005517600,0.425517578125,0.005431175231933594,0.040976617485284805,-0.02712453156709671
1717512994015524000,0.435524169921875,0.0006151199340820312,0.036935195326805115,-0.0228261798620224
1717512994025530400,0.4455302734375,0.0005893707275390625,0.03758469223976135,-0.02331853285431862
1717512994035537000,0.455536865234375,0.0005655288696289062,0.03824111819267273,-0.023813029751181602
1717512994045543400,0.46554345703125,0.005219459533691406,0.03412429615855217,-0.019633054733276367
1717512994055550000,0.475550048828125,0.0050907135009765625,0.04426097124814987,-0.025019831955432892
1717512994065556200,0.48555615234375,0.009649276733398438,0.049513306468725204,-0.02551521360874176
1717512994075562800,0.495562744140625,0.0047454833984375,0.03583607077598572,-0.021328136324882507
1717512994085569300,0.5055693359375,0.004633903503417969,0.04131562262773514,-0.026715993881225586
1717512994095575800,0.515575927734375,0.004528045654296875,0.04201112687587738,-0.027212277054786682
1717512994105582000,0.52558203125,-0.00026416778564453125,0.04271071031689644,-0.02312237024307251
1717512994115588600,0.535588623046875,0.004425048828125,0.048003800213336945,-0.028406834229826927
1717512994125595100,0.54559521484375,0.004328727722167969,0.04392631724476814,-0.03359850496053696
1717512994135601700,0.5556015625,-0.005156517028808594,0.049336813390254974,-0.02461429126560688
1717512994145608200,0.565608154296875,-0.000370025634765625,0.049862444400787354,-0.02060970664024353
1717512994155614700,0.57561474609375,-0.0003719329833984375,0.05519887059926987,-0.035382505506277084
1717512994165621200,0.585621337890625,0.0043277740478515625,0.05105453357100487,-0.026392117142677307
1717512994175627800,0.595627685546875,0.008944511413574219,0.0516008622944355,-0.02708037756383419
1717512994185634300,0.60563427734375,0.004075050354003906,0.04755289852619171,-0.0370703749358654
1717512994195640600,0.615640625,-0.00070953369140625,0.048295240849256516,-0.02807614393532276
1717512994205647000,0.625647216796875,-0.000705718994140625,0.053746577352285385,-0.028760841116309166
1717512994215653600,0.635653564453125,0.0040073394775390625,0.05431075766682625,-0.029441891238093376
1717512994225660200,0.64566015625,-0.0007753372192382812,0.054968785494565964,-0.03482017666101456
1717512994235666700,0.655666748046875,0.0039386749267578125,0.0556158572435379,-0.035400208085775375
1717512994245673200,0.665673095703125,-0.000843048095703125,0.056252170354127884,-0.040575940161943436
1717512994255679700,0.6756796875,-0.0008363723754882812,0.05216929316520691,-0.03153959661722183
1717512994265686300,0.685686279296875,0.003879547119140625,0.052759867161512375,-0.04148823022842407
1717512994275692800,0.69569287109375,0.008517265319824219,0.05815243348479271,-0.04185384884476662
1717512994285699300,0.70569921875,-0.0010480880737304688,0.053934741765260696,-0.04221337288618088
1717512994295705900,0.715705810546875,0.0036716461181640625,0.05920455604791641,-0.0379619300365448
1717512994305712400,0.72571240234375,0.0036039352416992188,0.05507258325815201,-0.038386713713407516
1717512994315719000,0.735718994140625,-0.001171112060546875,0.06513528525829315,-0.03409497067332268
1717512994325725400,0.745725341796875,0.008258819580078125,0.05619589984416962,-0.04400094598531723
1717512994335732000,0.75573193359375,0.003406524658203125,0.06623993813991547,-0.035010650753974915
1717512994345738200,0.76573828125,0.0033445358276367188,0.05717898905277252,-0.04019276052713394
1717512994355744800,0.775744873046875,0.0032835006713867188,0.057686273008584976,-0.040579892694950104
1717512994365751300,0.785751220703125,0.003223419189453125,0.058288343250751495,-0.04096056520938873
1717512994375757800,0.7957578125,-0.001544952392578125,0.06358899921178818,-0.041334882378578186
1717512994385764400,0.805764404296875,0.007893562316894531,0.06398949772119522,-0.036994341760873795
1717512994395771000,0.81577099609375,0.0030488967895507812,0.054966118186712265,-0.04214297607541084
1717512994405777400,0.82577734375,-0.0017156600952148438,0.0697394534945488,-0.042497921735048294
1717512994415784000,0.835783935546875,-0.0016918182373046875,0.0701407790184021,-0.047555528581142426
1717512994425790500,0.84579052734375,0.003040313720703125,0.061118174344301224,-0.043214503675699234
1717512994435797000,0.855796875,0.0029850006103515625,0.06637176871299744,-0.038842588663101196
1717512994445803500,0.865803466796875,-0.00177764892578125,0.06212067976593971,-0.04396107420325279
1717512994455810000,0.87581005859375,0.0029554367065429688,0.06264899671077728,-0.04438851401209831
1717512994465816600,0.885816650390625,0.007610321044921875,0.06316851824522018,-0.03999699279665947
1717512994475823000,0.895822998046875,0.007479667663574219,0.06357619166374207,-0.040387265384197235
1717512994485829400,0.905829345703125,-0.0020666122436523438,0.059371814131736755,-0.04077135771512985
1717512994495836000,0.9158359375,0.0026731491088867188,0.06925999373197556,-0.045857302844524384
1717512994505842400,0.925842529296875,0.00262451171875,0.06496082246303558,-0.046253107488155365
1717512994515849000,0.935848876953125,0.00728607177734375,0.06544192880392075,-0.051247671246528625
1717512994525855500,0.94585546875,0.007161140441894531,0.06110312417149544,-0.04674150049686432
1717512994535862000,0.955862060546875,0.007038116455078125,0.07577437162399292,-0.04231072589755058
1717512994545868500,0.96586865234375,-0.0025005340576171875,0.07607533037662506,-0.04266240447759628
1717512994555875000,0.975875,0.0022459030151367188,0.06695408374071121,-0.04771680757403374
1717512994565881600,0.985881591796875,-0.0025033950805664062,0.07211066782474518,-0.052790191024541855
1717512994575888100,0.99588818359375,0.0022430419921875,0.06776411831378937,-0.038738150149583817
1717512994585894700,1.005894775390625,-0.0025053024291992188,0.06819862127304077,-0.04856652021408081
1717512994595901200,1.015901123046875,0.0022420883178710938,0.06862588226795197,-0.04410526901483536
1717512994605907700,1.02590771484375,0.0022020339965820312,0.06904616206884384,-0.04913583770394325
1717512994615914200,1.035914306640625,0.006871223449707031,0.07416792958974838,-0.04937368631362915
1717512994625920800,1.045920654296875,0.0067539215087890625,0.0697871595621109,-0.049607567489147186
1717512994635927000,1.055927001953125,0.00193023681640625,0.07489662617444992,-0.0451289564371109
1717512994645933600,1.06593359375,0.0018949508666992188,0.07050375640392303,-0.05014218017458916
1717512994655940000,1.075940185546875,-0.0028476715087890625,0.07560130953788757,-0.05026000365614891
1717512994665946600,1.085946533203125,-0.0028018951416015625,0.07580206543207169,-0.05058232694864273
1717512994675953200,1.095953125,0.0113677978515625,0.0666855201125145,-0.0507960245013237
1717512994685959700,1.105959716796875,0.006466865539550781,0.07655534148216248,-0.046297572553157806
1717512994695966200,1.11596630859375,0.0016489028930664062,0.0720316618680954,-0.05599989369511604
1717512994705972700,1.12597265625,0.0016193389892578125,0.06297802925109863,-0.04670611396431923
1717512994715979300,1.135979248046875,-0.0031185150146484375,0.07751504331827164,-0.051693011075258255
1717512994725985800,1.14598583984375,-0.0030679702758789062,0.07307862490415573,-0.047179583460092545
1717512994735992300,1.155992431640625,0.001689910888671875,0.07803010940551758,-0.04744996502995491
1717512994745998800,1.165998779296875,0.0016603469848632812,0.0687732920050621,-0.052424438297748566
1717512994756005400,1.17600537109375,0.0016307830810546875,0.07379654794931412,-0.048002034425735474
1717512994766012000,1.186011962890625,0.0016021728515625,0.07413074374198914,-0.05296729505062103
1717512994776018200,1.19601806640625,0.006281852722167969,0.08387674391269684,-0.04843280836939812
1717512994786024700,1.206024658203125,-0.0032415390014648438,0.06991735100746155,-0.04387066513299942
1717512994796031200,1.21603125,0.0015192031860351562,0.07502482086420059,-0.049007996916770935
1717512994806037800,1.226037841796875,-0.007925033569335938,0.07533859461545944,-0.053956467658281326
1717512994816044300,1.236044189453125,0.0016231536865234375,0.07564712315797806,-0.0495084747672081
1717512994826050800,1.24605078125,0.0015954971313476562,0.07584728300571442,-0.05444857478141785
1717512994836057300,1.256057373046875,0.001567840576171875,0.07614753395318985,-0.04518073797225952
1717512994846063900,1.26606396484375,0.006249427795410156,0.08115121722221375,-0.05490155145525932
1717512994856070400,1.2760703125,0.010852813720703125,0.07655107975006104,-0.059751756489276886
1717512994866077000,1.286076904296875,0.0012540817260742188,0.0767364352941513,-0.05510413646697998
1717512994876083500,1.29608349609375,-0.0034761428833007812,0.07691870629787445,-0.05513932555913925
1717512994886090000,1.306090087890625,-0.0034189224243164062,0.0723891481757164,-0.05998557060956955
1717512994896096500,1.316096435546875,0.010763168334960938,0.08216429501771927,-0.0600426122546196
1717512994906103000,1.32610302734375,0.010582923889160156,0.08706776797771454,-0.05068134143948555
1717512994916109600,1.336109619140625,0.010405540466308594,0.07305516302585602,-0.05549865961074829
1717512994926115800,1.34611572265625,0.0008144378662109375,0.08271586894989014,-0.050921738147735596
1717512994936122400,1.356122314453125,-0.008617401123046875,0.07819302380084991,-0.06054689735174179
1717512994946129000,1.36612890625,0.0056514739990234375,0.07845395058393478,-0.06059424579143524
1717512994956135400,1.376135498046875,-0.008569717407226562,0.08341914415359497,-0.05603545904159546
1717512994966142000,1.386141845703125,0.0009889602661132812,0.078884556889534,-0.056158147752285004
1717512994976148500,1.3961484375,0.0009717941284179688,0.07903091609477997,-0.05627879127860069
1717512994986155000,1.406155029296875,0.0056629180908203125,0.08869507908821106,-0.05639725923538208
1717512994996161500,1.41616162109375,-0.0038499832153320312,0.0887811928987503,-0.056513916701078415
1717512995006168000,1.42616796875,-0.0037860870361328125,0.08405402302742004,-0.056628622114658356
1717512995016174600,1.436174560546875,0.0056934356689453125,0.07469724118709564,-0.05192972719669342
1717512995026181000,1.44618115234375,-0.0038194656372070312,0.08443384617567062,-0.056829433888196945
1717512995036187600,1.456187744140625,-0.0037565231323242188,0.0798821747303009,-0.056835465133190155
1717512995046194200,1.466194091796875,0.00101470947265625,0.07540657371282578,-0.05694478005170822
1717512995056200700,1.47620068359375,0.0009975433349609375,0.08042275160551071,-0.047635070979595184
1717512995066207200,1.486207275390625,0.000980377197265625,0.08064673840999603,-0.0525030642747879
1717512995076213500,1.496213623046875,0.005672454833984375,0.08076375722885132,-0.052684567868709564
1717512995086220000,1.506219970703125,0.0008697509765625,0.09039950370788574,-0.05275995284318924
1717512995096226600,1.5162265625,0.0055637359619140625,0.08574865013360977,-0.05764578655362129
1717512995106233000,1.526233154296875,0.005471229553222656,0.0811753198504448,-0.05292974412441254
1717512995116239600,1.536239501953125,-0.004036903381347656,0.08599218726158142,-0.06252135336399078
1717512995126246100,1.54624609375,0.0054473876953125,0.08602016419172287,-0.05782730132341385
1717512995136252700,1.556252685546875,-0.0040607452392578125,0.08144212514162064,-0.05321134626865387
1717512995146259200,1.56625927734375,-0.003993034362792969,0.08154594898223877,-0.05808965116739273
1717512995156265700,1.576265625,0.000782012939453125,0.08635663241147995,-0.05346944183111191
1717512995166272300,1.586272216796875,0.0054779052734375,0.08177340775728226,-0.05353172495961189
1717512995176278800,1.59627880859375,0.0053863525390625,0.08187172561883926,-0.05840468406677246
1717512995186285300,1.606285400390625,-0.008829116821289062,0.08678048849105835,-0.05377936735749245
1717512995196291800,1.616291748046875,0.005443572998046875,0.07737793773412704,-0.05864805728197098
1717512995206298400,1.62629833984375,0.000644683837890625,0.08707018941640854,-0.05391541123390198
1717512995216304600,1.6363046875,0.0006341934204101562,0.08718371391296387,-0.05867884308099747
1717512995226311200,1.646311279296875,0.0006246566772460938,0.08248327672481537,-0.0588606595993042
1717512995236317700,1.656317626953125,-0.004094123840332031,0.08267303556203842,-0.058832935988903046
1717512995246324200,1.66632421875,0.005391120910644531,0.08746519684791565,-0.058909039944410324
1717512995256330800,1.676330810546875,0.005301475524902344,0.08757192641496658,-0.058983758091926575
1717512995266337300,1.686337158203125,0.0005044937133789062,0.08286504447460175,-0.059057243168354034
1717512995276343800,1.69634375,0.005204200744628906,0.08294522017240524,-0.054420895874500275
1717512995286350300,1.706350341796875,0.00040912628173828125,0.08302406966686249,-0.06388437747955322
1717512995296356900,1.71635693359375,0.005110740661621094,0.07849649339914322,-0.0544591099023819
1717512995306363400,1.72636328125,0.0050258636474609375,0.08346135169267654,-0.04989941045641899
1717512995316370000,1.736369873046875,0.0002346038818359375,0.08824046701192856,-0.059541620314121246
1717512995326376400,1.74637646484375,0.0002307891845703125,0.0835224986076355,-0.05950256064534187
1717512995336383000,1.756383056640625,-0.004481315612792969,0.0835917666554451,-0.05946414917707443
1717512995346389500,1.766389404296875,0.00030231475830078125,0.08376312255859375,-0.054717767983675
1717512995356396000,1.77639599609375,0.005005836486816406,0.08382837474346161,-0.05475909262895584
1717512995366402600,1.786402587890625,0.000213623046875,0.08389278501272202,-0.054799847304821014
1717512995376409000,1.7964091796875,-0.004498481750488281,0.08395589143037796,-0.06425701081752777
1717512995386415600,1.80641552734375,-0.009131431579589844,0.08872676640748978,-0.05953411012887955
1717512995396422100,1.816422119140625,0.00043773651123046875,0.07929207384586334,-0.05949515104293823
1717512995406428700,1.8264287109375,0.005139350891113281,0.08884924650192261,-0.0687708780169487
1717512995416435500,1.836435546875,0.005053520202636719,0.07470392435789108,-0.059160783886909485
1717512995426442000,1.84644189453125,0.00026035308837890625,0.08433712273836136,-0.059127941727638245
1717512995436448500,1.856448486328125,0.004965782165527344,0.08439280092716217,-0.05449040234088898
1717512995446455000,1.866455078125,0.00017452239990234375,0.08292882889509201,-0.048899948596954346
1717512995456461600,1.876461669921875,0.004879951477050781,0.07667741179466248,-0.052819862961769104
1717512995466468000,1.886468017578125,0.009507179260253906,0.08015558123588562,-0.05677972733974457
1717512995476474600,1.896474609375,0.0046405792236328125,0.07866162061691284,-0.05586274713277817
1717512995486481200,1.906481201171875,-0.00014495849609375,0.07729681581258774,-0.05496203899383545
1717512995496488000,1.916488037109375,-0.00014209747314453125,0.07124724239110947,-0.054077308624982834
1717512995506494500,1.926494384765625,0.004569053649902344,0.07942444831132889,-0.05300100892782211
1717512995516501000,1.9365009765625,0.004492759704589844,0.07334190607070923,-0.05204780772328377
1717512995526507500,1.946507568359375,0.00441741943359375,0.07207044214010239,-0.05121448636054993
1717512995536514000,1.95651416015625,-0.00036525726318359375,0.0708201676607132,-0.05029178783297539
1717512995546520600,1.9665205078125,-0.0050678253173828125,0.07430210709571838,-0.0493866503238678
1717512995556527000,1.976527099609375,0.004433631896972656,0.07291553914546967,-0.04378899931907654
1717512995566534000,1.986533935546875,0.004360198974609375,0.07165679335594177,-0.04299425706267357
1717512995576540400,1.99654052734375,-0.0004215240478515625,0.0656086802482605,-0.042317070066928864
1717512995586547000,2.006546875,-0.00041484832763671875,0.05966126173734665,-0.046256206929683685
1717512995596553500,2.016553466796875,-0.000408172607421875,0.07265067100524902,-0.03600633516907692
1717512995606560000,2.02656005859375,-0.00040149688720703125,0.06188223138451576,-0.044762421399354935
1717512995616566500,2.03656640625,0.004313468933105469,0.06542088091373444,-0.04385318607091904
1717512995626573000,2.046572998046875,-0.0004673004150390625,0.05487992241978645,-0.04777202755212784
1717512995636579600,2.05657958984375,-0.009876251220703125,0.06335105001926422,-0.046918418258428574
1717512995646586000,2.066586181640625,-0.00029468536376953125,0.05284864455461502,-0.046183399856090546
1717512995656592600,2.076592529296875,-0.00028896331787109375,0.056543756276369095,-0.040648385882377625
1717512995666599200,2.08659912109375,0.004424095153808594,0.05557618662714958,-0.03981352597475052
1717512995676605700,2.096605712890625,0.009059906005859375,0.05452365055680275,-0.039096903055906296
1717512995686612200,2.1066123046875,0.004200935363769531,0.05349086597561836,-0.03829002380371094
1717512995696618500,2.116618408203125,0.004132270812988281,0.061894744634628296,-0.03760092705488205
1717512995706625000,2.126625,-0.000644683837890625,0.05122319981455803,-0.03211254999041557
1717512995716631600,2.136631591796875,-0.005341529846191406,0.054960936307907104,-0.040945857763290405
1717512995726638000,2.14663818359375,-0.0005426406860351562,0.06334739178419113,-0.0356106236577034
1717512995736644600,2.15664453125,-0.0005331039428710938,0.05276217311620712,-0.03957626223564148
1717512995746651100,2.166651123046875,-0.0005235671997070312,0.051773134618997574,-0.024745546281337738
1717512995756657700,2.17665771484375,-0.0005140304565429688,0.04599132761359215,-0.03360316529870033
1717512995766664200,2.186664306640625,-0.0052127838134765625,0.04982902109622955,-0.033000729978084564
1717512995776670700,2.196670654296875,-0.0051250457763671875,0.048896849155426025,-0.032410431653261185
1717512995786677200,2.20667724609375,-0.0003299713134765625,0.043271616101264954,-0.03182998299598694
1717512995796683800,2.216683837890625,-0.00032329559326171875,0.037745848298072815,-0.026450682431459427
1717512995806690300,2.226690185546875,0.004391670227050781,0.046440910547971725,-0.030683249235153198
1717512995816696800,2.23669677734375,-0.005097389221191406,0.045576874166727066,-0.030035220086574554
1717512995826703400,2.246703369140625,-0.005011558532714844,0.044626958668231964,-0.034109022468328476
1717512995836710000,2.2567099609375,-0.00021839141845703125,0.04840467497706413,-0.0240937490016222
1717512995846716200,2.266716064453125,-0.0049228668212890625,0.038100048899650574,-0.018852725625038147
1717512995856722700,2.27672265625,-0.0001316070556640625,0.03257562220096588,-0.027827490121126175
1717512995866729200,2.286729248046875,-0.00012969970703125,0.03666704148054123,-0.02263164147734642
1717512995876735700,2.29673583984375,-0.00012683868408203125,0.035981789231300354,-0.022127117961645126
1717512995886742300,2.3067421875,-0.0001239776611328125,0.04001655802130699,-0.031151454895734787
1717512995896748800,2.316748779296875,-0.00482940673828125,0.039275363087654114,-0.025796964764595032
1717512995906755300,2.32675537109375,-0.004748344421386719,0.03383791819214821,-0.025240318849682808
1717512995916761900,2.336761962890625,-0.00937652587890625,0.03319969400763512,-0.019984353333711624
1717512995926768400,2.346768310546875,0.00019741058349609375,0.027863509953022003,-0.024233194068074226
1717512995936775000,2.35677490234375,0.00019550323486328125,0.0367421880364418,-0.023805219680070877
1717512995946781400,2.366781494140625,0.00019359588623046875,0.0360555499792099,-0.01867644116282463
1717512995956788000,2.3767880859375,-0.004517555236816406,0.035277098417282104,-0.022947091609239578
1717512995966794500,2.38679443359375,0.0049762725830078125,0.03461487591266632,-0.02254122495651245
1717512995976801000,2.396801025390625,0.004894256591796875,0.03396368771791458,-0.026644213125109673
1717512995986807300,2.406807373046875,0.0001049041748046875,0.028614751994609833,-0.021364882588386536
1717512995996813800,2.416813720703125,-0.004604339599609375,0.02796030044555664,-0.020985394716262817
1717512996006820400,2.4268203125,0.00489044189453125,0.03683721274137497,-0.01580038294196129
1717512996016827000,2.436826904296875,0.004810333251953125,0.0314403772354126,-0.029639437794685364
1717512996026833400,2.44683349609375,0.009439468383789062,0.030841894447803497,-0.014893727377057076
1717512996036840000,2.45683984375,0.0045757293701171875,0.030150122940540314,-0.01922817900776863
1717512996046846500,2.466846435546875,-0.0002079010009765625,0.029470063745975494,-0.014175724238157272
1717512996056853000,2.47685302734375,0.004505157470703125,0.024195797741413116,-0.01841890439391136
1717512996066859500,2.486859619140625,-0.004985809326171875,0.03313542902469635,-0.017985284328460693
1717512996076866000,2.496865966796875,0.0045166015625,0.03240539878606796,-0.022268246859312057
1717512996086872600,2.50687255859375,0.004443168640136719,0.022270329296588898,-0.012354046106338501
1717512996096879000,2.516879150390625,0.009079933166503906,0.031138785183429718,-0.012021517381072044
1717512996106885600,2.5268857421875,-0.00519561767578125,0.021024808287620544,-0.016403909772634506
1717512996116892200,2.53689208984375,0.004309654235839844,0.025205418467521667,-0.016003888100385666
1717512996126898700,2.546898681640625,0.00894927978515625,0.024504482746124268,-0.0203191339969635
1717512996136905000,2.556905029296875,-0.0006151199340820312,0.019209645688533783,-0.01985466107726097
1717512996146911500,2.566911376953125,-0.00060272216796875,0.02342025190591812,-0.014689341187477112
1717512996156918000,2.57691796875,-0.005299568176269531,0.01814372092485428,-0.009609309956431389
1717512996166924500,2.586924560546875,0.004208564758300781,0.02226882427930832,-0.0093233622610569
1717512996176931000,2.59693115234375,-0.000568389892578125,0.02642843872308731,-0.009145451709628105
1717512996186937600,2.6069375,-0.0005559921264648438,0.020998261868953705,-0.013575853779911995
1717512996196944100,2.616944091796875,-0.0005445480346679688,0.015658579766750336,-0.018035683780908585
1717512996206950700,2.62695068359375,-0.0005331039428710938,0.015116482973098755,-0.012900741770863533
1717512996216957200,2.636957275390625,0.0041866302490234375,0.019395284354686737,-0.012559983879327774
1717512996226963700,2.646963623046875,-0.0005893707275390625,0.014082565903663635,-0.016932662576436996
1717512996236970200,2.65697021484375,0.004132270812988281,0.013566717505455017,-0.01642146334052086
1717512996246976800,2.666976806640625,-0.005351066589355469,0.013059459626674652,-0.0066048577427864075
1717512996256983300,2.6769833984375,-0.0052585601806640625,0.01716570556163788,-0.01107853278517723
1717512996266989800,2.68698974609375,0.00424957275390625,0.021203793585300446,-0.015476789325475693
1717512996276996000,2.69699609375,0.004181861877441406,0.01586063951253891,-0.010384563356637955
1717512996287002600,2.707002685546875,0.004115104675292969,0.010606236755847931,-0.005378095433115959
1717512996297009200,2.717009033203125,0.004050254821777344,0.01004502922296524,-0.009871389716863632
1717512996307015700,2.727015625,-0.0007219314575195312,0.00949317216873169,-0.009581206366419792
1717512996317022200,2.737022216796875,-0.000705718994140625,0.013658806681632996,-0.00458817183971405
1717512996327028700,2.74702880859375,0.0040187835693359375,0.013046413660049438,-0.0090955700725317
1717512996337035300,2.75703515625,0.008664131164550781,0.01244451105594635,-0.00881834328174591
1717512996347041800,2.767041748046875,0.0038156509399414062,0.00704076886177063,-0.008545748889446259
1717512996357048300,2.77704833984375,0.0037565231323242188,0.006435684859752655,-0.003569105640053749
1717512996367054800,2.787054931640625,0.0036983489990234375,0.005840368568897247,-0.0033849533647298813
1717512996377061400,2.797061279296875,-0.010484695434570312,0.009963557124137878,-0.0032038819044828415
1717512996387068000,2.80706787109375,-0.0008869171142578125,0.014018349349498749,-0.007630236446857452
1717512996397074400,2.817074462890625,-0.0008668899536132812,-0.0008288323879241943,-0.0025656316429376602
1717512996407081000,2.8270810546875,-0.0008478164672851562,-0.001302771270275116,-0.007105909287929535
1717512996417087500,2.83708740234375,-0.000827789306640625,0.002836182713508606,-0.006862891837954521
1717512996427093800,2.84709375,-0.0008077621459960938,0.0021978840231895447,-0.006519705057144165
1717512996437100300,2.857100341796875,-0.005496025085449219,0.006278812885284424,-0.010890841484069824
1717512996447106800,2.86710693359375,0.0040187835693359375,0.0008745342493057251,-0.0011666156351566315
1717512996457113300,2.87711328125,0.00395965576171875,-0.004543274641036987,-0.0010226592421531677
1717512996467119900,2.887119873046875,-0.0008087158203125,0.004358597099781036,-0.010194048285484314
1717512996477126400,2.89712646484375,0.0039196014404296875,0.0036949068307876587,-0.00037819892168045044
1717512996487133000,2.9071328125,-0.00084686279296875,-0.006478533148765564,-0.00014416873455047607
1717512996497139500,2.917139404296875,-0.005534172058105469,-0.002356290817260742,-0.009330231696367264
1717512996507146000,2.92714599609375,0.0039825439453125,0.006405502557754517,0.0004701539874076843
1717512996517152500,2.937152587890625,0.003924369812011719,-0.00381314754486084,0.0007932521402835846
1717512996527159000,2.947158935546875,-0.0008420944213867188,0.0002646595239639282,0.0010087266564369202
1717512996537165600,2.95716552734375,0.0038890838623046875,-0.000434093177318573,-0.0033847354352474213
1717512996547172000,2.967172119140625,0.008540153503417969,-0.005829811096191406,0.0016089528799057007
1717512996557178600,2.9771787109375,0.0036954879760742188,0.0030934512615203857,-0.0028977952897548676
1717512996567185000,2.987184814453125,0.0036420822143554688,-0.0070700496435165405,-0.0026219114661216736
1717512996577191400,2.99719140625,0.008298873901367188,0.0017702281475067139,0.002461228519678116
1717512996587198000,3.007197998046875,0.003459930419921875,-0.0036622732877731323,0.0026488453149795532
1717512996597204500,3.01720458984375,0.0034112930297851562,-0.009107895195484161,-0.0017730966210365295
1717512996607211000,3.0272109375,0.0033626556396484375,-0.00023331493139266968,0.0032969489693641663
1717512996617217500,3.037217529296875,0.0033159255981445312,-0.005735717713832855,-0.005843315273523331
1717512996627224000,3.04722412109375,0.0032701492309570312,-0.006437830626964569,0.008711736649274826
1717512996637230600,3.057230712890625,-0.0014829635620117188,-0.0071282461285591125,-0.005227390676736832
1717512996647237000,3.067237060546875,-0.00615692138671875,-0.012515760958194733,0.0000034458935260772705
1717512996657243600,3.07724365234375,-0.0060443878173828125,-0.013104885816574097,0.005043823271989822
1717512996667250200,3.087250244140625,-0.0012235641479492188,-0.018496043980121613,0.005291581153869629
1717512996677256700,3.097256591796875,0.008225440979003906,-0.009671568870544434,0.0009298659861087799
1717512996687263200,3.10726318359375,0.008100509643554688,-0.019828565418720245,0.00134943425655365
1717512996697269800,3.117269775390625,-0.0061492919921875,-0.010981917381286621,0.0016587376594543457
1717512996707276300,3.1272763671875,-0.0013265609741210938,-0.016408495604991913,0.0066714659333229065
1717512996717282600,3.137282470703125,0.0034170150756835938,-0.0077216848731040955,0.002184618264436722
1717512996727289000,3.1472890625,-0.0013360977172851562,-0.013202615082263947,-0.0021253637969493866
1717512996737295600,3.157295654296875,-0.0060100555419921875,-0.013883166015148163,0.007763460278511047
1717512996747302100,3.16730224609375,0.0035190582275390625,-0.019261837005615234,0.0033592619001865387
1717512996757308700,3.17730859375,-0.0012359619140625,-0.015133239328861237,0.003738265484571457
1717512996767315200,3.187315185546875,0.003505706787109375,-0.025199249386787415,0.00411093607544899
1717512996777321700,3.19732177734375,0.003459930419921875,-0.0256803035736084,0.004374124109745026
1717512996787328300,3.207328369140625,0.003414154052734375,-0.021444760262966156,0.004736185073852539
1717512996797334800,3.217334716796875,-0.0013380050659179688,-0.026697009801864624,0.014612670987844467
1717512996807341300,3.22734130859375,-0.0013036727905273438,-0.022444531321525574,0.00528360903263092
1717512996817347800,3.237347900390625,0.0034389495849609375,-0.018262922763824463,0.010235816240310669
1717512996827354400,3.247354248046875,-0.0013141632080078125,-0.0188596174120903,0.0010829530656337738
1717512996837361000,3.25736083984375,-0.001277923583984375,-0.02896636724472046,0.006209675222635269
1717512996847367400,3.267367431640625,-0.00124359130859375,-0.01996748149394989,0.011249687522649765
1717512996857373700,3.277373779296875,-0.001209259033203125,-0.02063903957605362,0.006788488477468491
1717512996867380200,3.287380126953125,-0.0011758804321289062,-0.025904744863510132,0.01181882992386818
1717512996877386800,3.29738671875,-0.005850791931152344,-0.021768756210803986,0.01676531881093979
1717512996887393300,3.307393310546875,-0.0010309219360351562,-0.02240981161594391,0.007504843175411224
1717512996897399800,3.31739990234375,-0.00099945068359375,-0.023040659725666046,0.007814604789018631
1717512996907406300,3.32740625,-0.00096893310546875,-0.02836959809064865,0.008015930652618408
1717512996917412900,3.337412841796875,-0.0009374618530273438,-0.02419203519821167,0.01302705705165863
1717512996927419400,3.34741943359375,-0.0009069442749023438,-0.020084582269191742,0.0038275569677352905
1717512996937426000,3.357426025390625,-0.005585670471191406,-0.030171386897563934,0.0041985660791397095
1717512996947432400,3.367432373046875,0.008647918701171875,-0.025964275002479553,0.009271971881389618
1717512996957439000,3.37743896484375,-0.0008974075317382812,-0.036055855453014374,0.00955355167388916
1717512996967445500,3.387445556640625,-0.0008678436279296875,-0.031750716269016266,0.014537695795297623
1717512996977452000,3.3974521484375,0.0038709640502929688,-0.027517318725585938,0.010124828666448593
1717512996987458600,3.40745849609375,0.0038213729858398438,-0.03277166932821274,0.01970476657152176
1717512996997465000,3.417465087890625,-0.0009336471557617188,-0.028624027967453003,0.01039525493979454
1717512997007471400,3.427471435546875,0.008515357971191406,-0.03385943919420242,0.010761357843875885
1717512997017478000,3.437477783203125,0.0036821365356445312,-0.029694199562072754,0.011120006442070007
1717512997027484400,3.447484375,0.0036373138427734375,-0.039724163711071014,0.016077999025583267
1717512997037491000,3.457490966796875,-0.0011129379272460938,-0.030855342745780945,0.016349393874406815
1717512997047497500,3.46749755859375,-0.0010776519775390625,-0.03615737706422806,0.01180301234126091
1717512997057504000,3.47750390625,0.008375167846679688,-0.036662451922893524,0.012144260108470917
1717512997067510500,3.487510498046875,-0.005871772766113281,-0.03255327045917511,0.017189811915159225
1717512997077517000,3.49751708984375,-0.0010461807250976562,-0.037929750978946686,0.01744265854358673
1717512997087523600,3.507523681640625,0.008406639099121094,-0.03840475529432297,0.02239987999200821
1717512997097530000,3.517530029296875,-0.005841255187988281,-0.04358045011758804,0.013148695230484009
1717512997107536600,3.52753662109375,-0.0010156631469726562,-0.03464736044406891,0.01817747950553894
1717512997117543200,3.537543212890625,0.0037298202514648438,-0.03998894244432449,0.01370524987578392
1717512997127549700,3.5475498046875,-0.00572967529296875,-0.031116239726543427,0.018826596438884735
1717512997137556200,3.55755615234375,-0.00090789794921875,-0.04112198203802109,0.014343533664941788
1717512997147562800,3.567562744140625,0.008543968200683594,-0.0416470542550087,0.014643784612417221
1717512997157569000,3.577569091796875,0.0037136077880859375,-0.046871982514858246,0.015042301267385483
1717512997167575600,3.587575439453125,-0.00574493408203125,-0.037883490324020386,0.020144224166870117
1717512997177582000,3.59758203125,-0.0009212493896484375,-0.03846253454685211,0.01563919335603714
1717512997187588600,3.607588623046875,0.00382232666015625,-0.04374108463525772,0.0159163735806942
1717512997197595100,3.61759521484375,-0.005637168884277344,-0.039617180824279785,0.02560759335756302
1717512997207601700,3.6276015625,0.0038957595825195312,-0.040270596742630005,0.025720085948705673
1717512997217608200,3.637608154296875,-0.0008563995361328125,-0.04562171548604965,0.016413509845733643
1717512997227614700,3.64761474609375,0.003887176513671875,-0.0413631796836853,0.011970635503530502
1717512997237621200,3.657621337890625,-0.000865936279296875,-0.04188424348831177,0.02172759920358658
1717512997247627800,3.667627685546875,-0.0008306503295898438,-0.04710579663515091,0.01729791983962059
1717512997257634300,3.67763427734375,-0.0007963180541992188,-0.04753173142671585,0.012838799506425858
1717512997267640800,3.687640869140625,-0.0007610321044921875,-0.04794997721910477,0.017975948750972748
1717512997277647400,3.6976474609375,-0.0007266998291015625,-0.04836124926805496,0.01361028105020523
1717512997287654100,3.707654052734375,0.004016876220703125,-0.04416032135486603,0.023443162441253662
1717512997297660700,3.71766064453125,0.008680343627929688,-0.049343355000019073,0.023694969713687897
1717512997307667200,3.727667236328125,0.0038499832153320312,-0.04983469098806381,0.01913071796298027
1717512997317673700,3.737673828125,0.0038089752197265625,-0.05031786113977432,0.01945440098643303
1717512997327680300,3.74768017578125,0.0037679672241210938,-0.055502183735370636,0.014959294348955154
1717512997337686800,3.757686767578125,-0.000980377197265625,-0.05589091032743454,0.020061098039150238
1717512997347693300,3.767693359375,-0.0009412765502929688,-0.04685594141483307,0.015557408332824707
1717512997357700000,3.7777001953125,0.0038061141967773438,-0.047388747334480286,0.02064923197031021
1717512997367706600,3.78770654296875,0.003765106201171875,-0.04791267216205597,0.02555292472243309
1717512997377713200,3.797713134765625,-0.0056915283203125,-0.048427268862724304,0.021062519401311874
1717512997387719700,3.8077197265625,-0.005570411682128906,-0.0490371435880661,0.026165850460529327
1717512997397726200,3.817726318359375,0.003963470458984375,-0.05424218624830246,0.01695505529642105
1717512997407732700,3.827732666015625,0.003920555114746094,-0.04994329810142517,0.02673216164112091
1717512997417739300,3.8377392578125,-0.0008287429809570312,-0.05984184890985489,0.017615187913179398
1717512997427745800,3.847745849609375,0.003918647766113281,-0.05555290728807449,0.022672690451145172
1717512997437752600,3.857752685546875,-0.0008306503295898438,-0.0465235635638237,0.02293730154633522
1717512997447759000,3.867759033203125,-0.0007915496826171875,-0.05187313258647919,0.023199092596769333
1717512997457765600,3.877765625,0.003956794738769531,-0.052425578236579895,0.018746323883533478
1717512997467772200,3.887772216796875,0.003914833068847656,-0.052865564823150635,0.02849355712532997
1717512997477778700,3.89777880859375,0.0038738250732421875,-0.05800681561231613,0.023952540010213852
1717512997487785200,3.90778515625,0.003833770751953125,-0.05364520847797394,0.02890440821647644
1717512997497791700,3.917791748046875,-0.000911712646484375,-0.04945956915616989,0.029168415814638138
1717512997507798500,3.927798583984375,-0.0008697509765625,-0.05476021766662598,0.024721041321754456
1717512997517805000,3.93780517578125,-0.000827789306640625,-0.05526457726955414,0.03447194769978523
1717512997527811600,3.9478115234375,0.0039215087890625,-0.05576053261756897,0.025225944817066193
1717512997537818000,3.957818115234375,0.0038824081420898438,-0.056248217821121216,0.025447972118854523
1717512997547824600,3.96782470703125,-0.000865936279296875,-0.06133311241865158,0.02566629648208618
1717512997557831200,3.9778310546875,0.0038843154907226562,-0.06172790378332138,0.02598424255847931
1717512997567837700,3.987837646484375,0.0038461685180664062,-0.05740685760974884,0.026092015206813812
1717512997577844200,3.99784423828125,0.008518218994140625,-0.05786643922328949,0.035821717232465744
1717512997587850800,4.007850830078125,0.008401870727539062,-0.07234157621860504,0.021741356700658798
1717512997597857300,4.017857177734375,-0.00583648681640625,-0.05842716991901398,0.03143865615129471
1717512997607863800,4.02786376953125,-0.005710601806640625,-0.06368162482976913,0.0315588042140007
1717512997617870300,4.037870361328125,-0.0008783340454101562,-0.06403731554746628,0.03177852928638458
1717512997627876900,4.047876953125,-0.0008363723754882812,-0.0690956637263298,0.022474121302366257
1717512997637883100,4.057883056640625,-0.0007963180541992188,-0.06454924494028091,0.03697103634476662
1717512997647889700,4.0678896484375,0.003954887390136719,-0.06499301642179489,0.027581773698329926
1717512997657896200,4.077896240234375,-0.005497932434082031,-0.06072080135345459,0.032578058540821075
1717512997667902700,4.08790283203125,-0.0006685256958007812,-0.06122836470603943,0.02797059714794159
1717512997677909200,4.0979091796875,-0.0006303787231445312,-0.06633280962705612,0.028148531913757324
1717512997687915800,4.107915771484375,-0.000591278076171875,-0.06664357334375381,0.02371816709637642
1717512997697922300,4.11792236328125,0.004157066345214844,-0.07176100462675095,0.02877882868051529
1717512997707928800,4.1279287109375,0.004117012023925781,-0.07208455353975296,0.028943292796611786
1717512997717935400,4.137935302734375,0.008785247802734375,-0.06288297474384308,0.02910330891609192
1717512997727942000,4.14794189453125,0.00395965576171875,-0.06806311756372452,0.02926238626241684
1717512997737948400,4.157948486328125,0.0039234161376953125,-0.06374043226242065,0.034125685691833496
1717512997747955000,4.167954833984375,0.0038881301879882812,-0.06419770419597626,0.03420105576515198
1717512997757961500,4.17796142578125,0.0038537979125976562,-0.06935595721006393,0.029566578567028046
1717512997767968000,4.187968017578125,0.0038175582885742188,-0.06490777432918549,0.03442654758691788
1717512997777974300,4.197974365234375,0.0037841796875,-0.06534560024738312,0.03449691832065582
1717512997787980800,4.207980712890625,0.0037517547607421875,-0.0704847201704979,0.029960788786411285
1717512997797987300,4.2179873046875,0.003719329833984375,-0.0708303228020668,0.03481244295835495
1717512997807993900,4.227993896484375,-0.00572967529296875,-0.07116944342851639,0.03487639129161835
1717512997818000400,4.23800048828125,-0.0008945465087890625,-0.07150288671255112,0.02562534436583519
1717512997828007000,4.2480068359375,0.0038595199584960938,-0.0812479555606842,0.030654259026050568
1717512997838013400,4.258013427734375,-0.0008821487426757812,-0.0672876238822937,0.040307965129613876
1717512997848020000,4.26802001953125,0.003871917724609375,-0.07239436358213425,0.03567498177289963
1717512997858026500,4.278026611328125,0.0038385391235351562,-0.06799951195716858,0.031117446720600128
1717512997868033000,4.288032958984375,-0.0009021759033203125,-0.07319765537977219,0.035951584577560425
1717512997878039600,4.29803955078125,0.00385284423828125,-0.06408009678125381,0.031391218304634094
1717512997888046000,4.308046142578125,0.0038194656372070312,-0.07394889742136002,0.03161545842885971
1717512997898052600,4.318052490234375,0.0037870407104492188,-0.07423602789640427,0.0365445613861084
1717512997908059100,4.32805908203125,0.0037555694580078125,-0.06980977952480316,0.036786191165447235
1717512997918065700,4.338065673828125,0.0037250518798828125,-0.07016590237617493,0.03692052513360977
1717512997928072000,4.348072021484375,0.003696441650390625,-0.0706201046705246,0.032342225313186646
1717512997938078500,4.358078369140625,-0.001041412353515625,-0.07096345722675323,0.02784023806452751
1717512997948085000,4.3680849609375,0.0037145614624023438,-0.07119709253311157,0.03283227980136871
1717512997958091500,4.378091552734375,-0.0010213851928710938,-0.07634196430444717,0.0331357941031456
1717512997968098000,4.38809814453125,0.0037384033203125,-0.07198387384414673,0.04274817183613777
1717512997978104600,4.3981044921875,-0.0010004043579101562,-0.07230375707149506,0.02865735813975334
1717512997988111000,4.408111083984375,-0.0056591033935546875,-0.07732688635587692,0.03373904526233673
1717512997998117600,4.41811767578125,-0.000823974609375,-0.06814048439264297,0.0339241623878479
1717512998008124200,4.428124267578125,-0.00548553466796875,-0.0732329785823822,0.04362666234374046
1717512998018130700,4.438130615234375,0.004055023193359375,-0.06882338970899582,0.043646980077028275
1717512998028137200,4.44813720703125,0.0040225982666015625,-0.07400776445865631,0.03906163573265076
1717512998038143700,4.458143798828125,-0.0007219314575195312,-0.07419060170650482,0.034449443221092224
1717512998048150300,4.468150390625,0.013449668884277344,-0.07457689940929413,0.03451944887638092
1717512998058156800,4.47815673828125,0.0038433074951171875,-0.07495680451393127,0.03940017521381378
1717512998068163000,4.4881630859375,-0.005604743957519531,-0.07522711157798767,0.0394909605383873
1717512998078169600,4.498169677734375,-0.0007658004760742188,-0.08040802925825119,0.03497488796710968
1717512998088176000,4.508176025390625,-0.010135650634765625,-0.0853993222117424,0.03513941168785095
1717512998098182700,4.5181826171875,0.0041942596435546875,-0.07618160545825958,0.040113046765327454
1717512998108189200,4.528189208984375,-0.005257606506347656,-0.08124331384897232,0.04029519110918045
1717512998118195700,4.53819580078125,-0.00042438507080078125,-0.08161530643701553,0.03095383569598198
1717512998128202200,4.5482021484375,-0.0003814697265625,-0.07246062904596329,0.04541441425681114
1717512998138208800,4.558208740234375,0.004367828369140625,-0.08229213207960129,0.031281013041734695
1717512998148215300,4.56821533203125,0.004329681396484375,-0.08725195378065109,0.03150707855820656
1717512998158221800,4.578221923828125,0.004291534423828125,-0.082608662545681,0.041249848902225494
1717512998168228400,4.588228271484375,-0.005162239074707031,-0.07814602553844452,0.04130978137254715
1717512998178235000,4.59823486328125,0.004376411437988281,-0.08317495137453079,0.03205477073788643
1717512998188241400,4.608241455078125,0.004338264465332031,-0.08341146260499954,0.03697654604911804
1717512998198248000,4.618248046875,-0.000408172607421875,-0.07893542945384979,0.03239910677075386
1717512998208254500,4.62825439453125,-0.0003681182861328125,-0.0791393369436264,0.037211887538433075
1717512998218260700,4.6382607421875,0.004382133483886719,-0.0794430822134018,0.04204771667718887
1717512998228267300,4.648267333984375,-0.0003643035888671875,-0.07974179089069366,0.03738575428724289
1717512998238273800,4.658273681640625,0.00909423828125,-0.08474331349134445,0.03751198202371597
1717512998248280300,4.6682802734375,-0.00043964385986328125,-0.08955822139978409,0.03773938864469528
1717512998258286800,4.678286865234375,-0.00039577484130859375,-0.08968833833932877,0.04266969859600067
1717512998268293400,4.68829345703125,-0.0003528594970703125,-0.08510769158601761,0.04280923306941986
1717512998278300000,4.6982998046875,0.009106636047363281,-0.0900205597281456,0.03823783993721008
1717512998288306400,4.708306396484375,0.004284858703613281,-0.08553764969110489,0.038451239466667175
1717512998298313000,4.71831298828125,0.004248619079589844,-0.08102619647979736,0.03855782747268677
1717512998308319500,4.728319580078125,-0.0004940032958984375,-0.07658993452787399,0.038765907287597656
1717512998318326000,4.738325927734375,-0.00045013427734375,-0.08635339885950089,0.03415865823626518
1717512998328332500,4.74833251953125,-0.005115509033203125,-0.08653611689805984,0.034338708966970444
1717512998338339000,4.758339111328125,0.0044231414794921875,-0.08671658486127853,0.044034287333488464
1717512998348345600,4.768345703125,-0.00032138824462890625,-0.08699732273817062,0.03933922201395035
1717512998358352100,4.77835205078125,0.004427909851074219,-0.08246150612831116,0.04413960874080658
1717512998368358400,4.7883583984375,0.009099006652832031,-0.08741766959428787,0.044256582856178284
1717512998378365000,4.798364990234375,-0.0004329681396484375,-0.08758347481489182,0.03966108709573746
1717512998388371500,4.808371337890625,-0.005097389221191406,-0.09245427697896957,0.039852701127529144
1717512998398378000,4.8183779296875,0.009148597717285156,-0.08311890065670013,0.03522733226418495
1717512998408384500,4.828384521484375,0.0043239593505859375,-0.08335551619529724,0.040201447904109955
1717512998418391000,4.83839111328125,0.004288673400878906,-0.08829761296510696,0.04509073495864868
1717512998428397600,4.8483974609375,0.004253387451171875,-0.0884479209780693,0.04519187659025192
1717512998438404000,4.858404052734375,0.00421905517578125,-0.08859654515981674,0.03576894477009773
1717512998448410600,4.86841064453125,0.00418853759765625,-0.0935545489192009,0.05025257542729378
1717512998458417200,4.878417236328125,0.0041561126708984375,-0.08890866488218307,0.0455591082572937
1717512998468423700,4.888423583984375,-0.0005846023559570312,-0.09375821799039841,0.04094191640615463
1717512998478430200,4.89843017578125,0.008878707885742188,-0.08440034091472626,0.03630036488175392
1717512998488436700,4.908436767578125,-0.0006465911865234375,-0.08942749351263046,0.04596523940563202
1717512998498443300,4.918443359375,0.004109382629394531,-0.08955898135900497,0.0459485799074173
1717512998508449800,4.92844970703125,-0.0006303787231445312,-0.09439771622419357,0.04603350907564163
1717512998518456300,4.938456298828125,0.0088348388671875,-0.08973778039216995,0.046118974685668945
1717512998528462800,4.948462890625,0.008725166320800781,-0.08986411243677139,0.041494421660900116
1717512998538469400,4.958469482421875,-0.0007982254028320312,-0.09009162336587906,0.036946963518857956
1717512998548476000,4.968475830078125,-0.0007476806640625,-0.08079571276903152,0.03718193992972374
1717512998558482700,4.978482666015625,-0.0006961822509765625,-0.0905923917889595,0.037412989884614944
1717512998568489200,4.9884892578125,0.0040607452392578125,-0.08599671721458435,0.037536922842264175
1717512998578495700,4.998495849609375,-0.0006761550903320312,-0.09099724143743515,0.04247262328863144
1717512998588502300,5.008502197265625,-0.0006256103515625,-0.08178862184286118,0.03790886327624321
1717512998598508800,5.0185087890625,0.004132270812988281,-0.0915687158703804,0.03802453354001045
1717512998608515300,5.028515380859375,0.004100799560546875,-0.09637310355901718,0.04295211285352707
1717512998618521900,5.03852197265625,0.0040721893310546875,-0.08707490563392639,0.038380373269319534
1717512998628528400,5.0485283203125,0.0040416717529296875,-0.09195419400930405,0.04801062494516373
1717512998638535200,5.05853515625,-0.0006952285766601562,-0.08743821084499359,0.0433545857667923
1717512998648541700,5.068541748046875,-0.0006465911865234375,-0.09231141954660416,0.043381474912166595
1717512998658548200,5.07854833984375,-0.005307197570800781,-0.09710340946912766,0.04340791702270508
1717512998668554800,5.0885546875,0.0042362213134765625,-0.09710691124200821,0.04824577271938324
1717512998678561300,5.098561279296875,-0.0005054473876953125,-0.09240178018808365,0.04348254203796387
1717512998688567800,5.10856787109375,-0.00045680999755859375,-0.0831705704331398,0.04831717163324356
1717512998698574300,5.11857421875,-0.00040912628173828125,-0.09763533622026443,0.04365600645542145
1717512998708581000,5.1285810546875,0.0043468475341796875,-0.08360742777585983,0.04378112405538559
1717512998718587600,5.138587646484375,0.0043125152587890625,-0.0885453075170517,0.03919358178973198
1717512998728594200,5.14859423828125,0.00428009033203125,-0.09810862690210342,0.04891354590654373
1717512998738600700,5.1586005859375,0.008957862854003906,-0.09349090605974197,0.04894906282424927
1717512998748607200,5.168607177734375,0.004139900207519531,-0.0889492928981781,0.04898598790168762
1717512998758613800,5.17861376953125,0.004111289978027344,-0.0891919732093811,0.0443137064576149
1717512998768620300,5.188620361328125,0.013500213623046875,-0.09884867817163467,0.04442591220140457
1717512998778627000,5.198626953125,0.008605003356933594,-0.08469734340906143,0.049246855080127716
1717512998788633600,5.208633544921875,0.008502006530761719,-0.08971954882144928,0.044570259749889374
1717512998798640000,5.21864013671875,0.0036916732788085938,-0.08994945883750916,0.0493888258934021
1717512998808646700,5.228646728515625,0.0036687850952148438,-0.09007313847541809,0.04941648244857788
1717512998818653200,5.238653076171875,0.0036478042602539062,-0.09029804170131683,0.04002648964524269
1717512998828659700,5.24865966796875,0.003627777099609375,-0.09051832556724548,0.044920794665813446
1717512998838666200,5.258666259765625,-0.0011005401611328125,-0.09073494374752045,0.04502493143081665
1717512998848672800,5.2686728515625,-0.0010423660278320312,-0.095655657351017,0.05444326624274254
1717512998858679300,5.27867919921875,0.0037221908569335938,-0.09097476303577423,0.044971488416194916
1717512998868685800,5.288685791015625,-0.0010080337524414062,-0.09589234739542007,0.04036618396639824
1717512998878692400,5.2986923828125,0.0037565231323242188,-0.09131075441837311,0.04515155404806137
1717512998888699000,5.308698974609375,0.008440971374511719,-0.09141086041927338,0.040543247014284134
1717512998898705400,5.318705322265625,0.008340835571289062,-0.0916125625371933,0.04542895406484604
1717512998908712000,5.3287119140625,0.0035314559936523438,-0.09641625732183456,0.04552464187145233
1717512998918718500,5.338718505859375,-0.00119781494140625,-0.09172269701957703,0.05503593012690544
1717512998928725000,5.34872509765625,0.0035724639892578125,-0.08721061795949936,0.05026290565729141
1717512998938731500,5.3587314453125,-0.0011568069458007812,-0.09208768606185913,0.04086083546280861
1717512998948738000,5.368738037109375,-0.0010967254638671875,-0.10169532150030136,0.0457412526011467
1717512998958744600,5.37874462890625,0.0036716461181640625,-0.09701702743768692,0.04112313315272331
1717512998968750800,5.388750732421875,0.008358955383300781,-0.09241582453250885,0.05060654133558273
1717512998978757400,5.39875732421875,-0.001155853271484375,-0.09260079264640808,0.045907340943813324
1717512998988764000,5.408763916015625,-0.0010967254638671875,-0.10209659487009048,0.04128646478056908
1717512998998770400,5.4187705078125,-0.00103759765625,-0.09741159528493881,0.04145119711756706
1717512999008777000,5.42877685546875,0.0084381103515625,-0.09280465543270111,0.051030367612838745
1717512999018783500,5.438783447265625,-0.0010786056518554688,-0.10240120440721512,0.04632207751274109
1717512999028790000,5.4487900390625,-0.0010204315185546875,-0.10702505707740784,0.04650615155696869
1717512999038796500,5.458796630859375,-0.0009622573852539062,-0.09754931181669235,0.0465838760137558
1717512999048803000,5.468802978515625,-0.0009050369262695312,-0.0929400622844696,0.056077513843774796
1717512999058809600,5.4788095703125,-0.0008487701416015625,-0.10253343731164932,0.04657852649688721
1717512999068816100,5.488816162109375,0.0039157867431640625,-0.08842391520738602,0.04675830900669098
1717512999078822700,5.49882275390625,0.0038928985595703125,-0.1028011366724968,0.042226504534482956
1717512999088829200,5.5088291015625,-0.0008392333984375,-0.09810435026884079,0.05179276317358017
1717512999098835700,5.518835693359375,0.003924369812011719,-0.0981944277882576,0.05178237706422806
1717512999108842000,5.528842041015625,-0.0008077621459960938,-0.08886580914258957,0.05658402666449547
1717512999118848500,5.5388486328125,0.008663177490234375,-0.09842468053102493,0.0518864169716835
1717512999128855000,5.54885498046875,0.0038089752197265625,-0.0920109897851944,0.051032260060310364
1717512999138861600,5.558861572265625,0.0037441253662109375,-0.09041209518909454,0.050191730260849
1717512999148868000,5.5688681640625,-0.001026153564453125,-0.08894242346286774,0.04465595632791519
1717512999158874600,5.57887451171875,0.00370025634765625,-0.0922052189707756,0.04392034560441971
1717512999168881200,5.588881103515625,-0.0057773590087890625,-0.09070441871881485,0.047904856503009796
1717512999178887700,5.5988876953125,-0.0009717941284179688,-0.08451944589614868,0.03769639506936073
1717512999188894200,5.608894287109375,0.0037517547607421875,-0.08304229378700256,0.041783079504966736
1717512999198900700,5.618900634765625,-0.0010204315185546875,-0.09100555628538132,0.0458027645945549
1717512999208907300,5.6289072265625,0.0037069320678710938,-0.08481385558843613,0.040438778698444366
1717512999218913800,5.638913818359375,0.0036458969116210938,-0.08343345671892166,0.03976867347955704
1717512999228920300,5.64892041015625,0.008295059204101562,-0.07265756279230118,0.03911072760820389
1717512999238926800,5.6589267578125,0.0034475326538085938,-0.08079273253679276,0.038460955023765564
1717512999248933400,5.668933349609375,-0.0013179779052734375,-0.08418654650449753,0.037924349308013916
1717512999258939600,5.678939697265625,0.0034132003784179688,-0.07339759171009064,0.03729243576526642
1717512999268946200,5.6889462890625,0.00806427001953125,-0.07681060582399368,0.046190518885850906
1717512999278952700,5.69895263671875,-0.0014867782592773438,-0.07085168361663818,0.031294818967580795
1717512999288959200,5.708959228515625,-0.001461029052734375,-0.06499174982309341,0.03548070043325424
1717512999298965800,5.7189658203125,0.00327301025390625,-0.07806356996297836,0.034887149930000305
1717512999308972300,5.72897216796875,0.0032196044921875,-0.067375048995018,0.03430064767599106
1717512999318978800,5.738978759765625,0.007874488830566406,-0.06628085672855377,0.033724620938301086
1717512999328985300,5.7489853515625,0.00774383544921875,-0.06991326063871384,0.03326041251420975
1717512999338991900,5.758991943359375,0.0029048919677734375,-0.06867379695177078,0.03280115872621536
1717512999348998400,5.768998291015625,-0.0018520355224609375,-0.06284947693347931,0.03224526345729828
1717512999359005000,5.7790048828125,-0.0018215179443359375,-0.06182993948459625,0.036407940089702606
1717512999369011500,5.789011474609375,0.002918243408203125,-0.06553586572408676,0.03589491546154022
1717512999379018000,5.79901806640625,0.0028705596923828125,-0.06447205692529678,0.0353877916932106
1717512999389024500,5.8090244140625,0.0028238296508789062,-0.0587172657251358,0.03488818556070328
1717512999399030800,5.81903076171875,0.007485389709472656,-0.057766854763031006,0.024875503033399582
1717512999409037300,5.829037353515625,0.007361412048339844,-0.05683143436908722,0.029259487986564636
1717512999419043800,5.8390439453125,-0.002178192138671875,-0.055912137031555176,0.03346453607082367
1717512999429050400,5.84905029296875,0.0025653839111328125,-0.054904013872146606,0.03289160877466202
1717512999439057000,5.859056884765625,-0.002185821533203125,-0.05872458964586258,0.03232821822166443
1717512999449063400,5.8690634765625,-0.0021505355834960938,-0.062377847731113434,0.0318756103515625
1717512999459070000,5.879070068359375,0.0025949478149414062,-0.051948219537734985,0.03142798691987991
1717512999469076500,5.889076416015625,0.011969566345214844,-0.05110873281955719,0.03098846971988678
1717512999479083000,5.8990830078125,0.0023527145385742188,-0.054992325603961945,0.025741837918758392
1717512999489089500,5.909089599609375,-0.007103919982910156,-0.049393102526664734,0.02058326080441475
1717512999499096000,5.919095947265625,0.0024318695068359375,-0.048595577478408813,0.029635459184646606
1717512999509102600,5.9291025390625,-0.0023183822631835938,-0.042999230325222015,0.02451329305768013
1717512999519109000,5.939109130859375,-0.0022802352905273438,-0.0516216978430748,0.024184122681617737
1717512999529115600,5.94911572265625,0.0024662017822265625,-0.05078630894422531,0.02846478298306465
1717512999539122200,5.9591220703125,0.0024242401123046875,-0.04986133426427841,0.027964528650045395
1717512999549128400,5.96912841796875,0.0070934295654296875,-0.03492970019578934,0.02286481484770775
1717512999559135000,5.979135009765625,-0.0024423599243164062,-0.04849831014871597,0.022454462945461273
1717512999569141500,5.9891416015625,0.002307891845703125,-0.052423395216464996,0.026861876249313354
1717512999579148000,5.99914794921875,0.0022706985473632812,-0.042156487703323364,0.031196363270282745
1717512999589154600,6.009154541015625,0.0022335052490234375,-0.03676912933588028,0.021331846714019775
1717512999599161000,6.0191611328125,0.011614799499511719,-0.040888622403144836,0.025756552815437317
1717512999609167600,6.029167724609375,0.002002716064453125,-0.04012742638587952,0.02529464289546013
1717512999619174100,6.039174072265625,0.0019683837890625,-0.039378777146339417,0.024942714720964432
1717512999629181000,6.049180908203125,-0.007480621337890625,-0.03874579071998596,0.024595648050308228
1717512999639187500,6.0591875,0.0020608901977539062,-0.042831890285015106,0.019441481679677963
1717512999649194000,6.069194091796875,-0.0026807785034179688,-0.04214184731245041,0.009765468537807465
1717512999659200500,6.079200439453125,0.0020732879638671875,-0.032045476138591766,0.019085567444562912
1717512999669207000,6.08920703125,-0.0026702880859375,-0.04095178097486496,0.018728885799646378
1717512999679213600,6.099213623046875,-0.00262451171875,-0.0355844646692276,0.018479041755199432
1717512999689220000,6.10922021484375,0.0021266937255859375,-0.039619944989681244,0.01823382079601288
1717512999699226600,6.1192265625,0.0020923614501953125,-0.03427429497241974,0.01799170672893524
1717512999709233400,6.1292333984375,0.002056121826171875,-0.038331709802150726,0.017752647399902344
1717512999719240000,6.139239990234375,0.00202178955078125,-0.033008232712745667,0.01741189882159233
1717512999729246500,6.14924658203125,0.001987457275390625,-0.03237888216972351,0.0124705471098423
1717512999739253000,6.1592529296875,0.011372566223144531,-0.03657142072916031,0.017029162496328354
1717512999749259500,6.169259521484375,-0.0029439926147460938,-0.04059091955423355,0.016802217811346054
1717512999759266000,6.17926611328125,0.0018129348754882812,-0.035126425325870514,0.016578052192926407
1717512999769272600,6.1892724609375,0.00649261474609375,-0.034565068781375885,0.016356606036424637
1717512999779279400,6.199279296875,0.00638580322265625,-0.034013308584690094,0.020846422761678696
1717512999789286000,6.209285888671875,-0.007845878601074219,-0.02876238524913788,0.015843160450458527
1717512999799292400,6.21929248046875,-0.0030078887939453125,-0.02349592000246048,0.015630804002285004
1717512999809299000,6.229298828125,-0.00766754150390625,-0.027734681963920593,0.020129475742578506
1717512999819305500,6.239305419921875,0.0018768310546875,-0.022485293447971344,0.010427579283714294
1717512999829312000,6.24931201171875,0.00655364990234375,-0.031450055539608,0.015010666102170944
1717512999839318500,6.259318603515625,0.006443023681640625,-0.04026520252227783,0.01480891928076744
1717512999849325000,6.269324951171875,-0.003082275390625,-0.020682819187641144,0.014504719525575638
1717512999859331800,6.279331787109375,0.0016756057739257812,-0.02015838772058487,0.01430768147110939
1717512999869338400,6.28933837890625,0.0016469955444335938,-0.015037953853607178,0.01411273330450058
1717512999879345000,6.299344970703125,0.0016193389892578125,-0.02883841097354889,0.014021813869476318
1717512999889351400,6.309351318359375,0.0015916824340820312,-0.028283223509788513,0.013829212635755539
1717512999899358000,6.31935791015625,0.00156402587890625,-0.03244666010141373,0.01363859698176384
1717512999909364500,6.329364501953125,0.0015392303466796875,-0.02251962572336197,0.008740026503801346
1717512999919371000,6.33937109375,-0.0031957626342773438,-0.02678094059228897,0.00863172858953476
1717512999929377800,6.349377685546875,-0.00785064697265625,-0.0263669490814209,0.008420679718255997
1717512999939384300,6.35938427734375,0.001697540283203125,-0.025960952043533325,0.012920483946800232
1717512999949390800,6.369390869140625,-0.0030393600463867188,-0.020854264497756958,0.017344053834676743
1717512999959397400,6.3793974609375,0.0017194747924804688,-0.0205424502491951,0.01698410138487816
1717512999969404000,6.38940380859375,0.0016918182373046875,-0.02965421974658966,0.012126971036195755
1717512999979410400,6.399410400390625,0.0016641616821289062,-0.024489015340805054,0.011956244707107544
1717512999989417000,6.4094169921875,0.0016374588012695312,-0.028828799724578857,0.011786017566919327
1717512999999423500,6.419423583984375,-0.0030975341796875,-0.02368023246526718,0.011617563664913177
1717513000009430000,6.429429931640625,0.00637054443359375,-0.02322392165660858,0.016159482300281525
1717513000019436500,6.4394365234375,-0.007862091064453125,-0.022776328027248383,0.006498914211988449
1717513000029443000,6.449443115234375,-0.0030221939086914062,-0.022337280213832855,0.01593606546521187
1717513000039449600,6.45944970703125,-0.0029706954956054688,-0.02671850472688675,0.015694502741098404
1717513000049456000,6.4694560546875,-0.0029201507568359375,-0.021610580384731293,0.010747440159320831
1717513000059462400,6.47946240234375,0.0018377304077148438,-0.026006005704402924,0.005881927907466888
1717513000069469000,6.489468994140625,0.00180816650390625,-0.020911462604999542,0.010515041649341583
1717513000079475500,6.499475341796875,-0.0029315948486328125,-0.02521766722202301,0.01035904511809349
1717513000089482000,6.50948193359375,0.0018253326416015625,-0.015326671302318573,0.005497444421052933
1717513000099488500,6.519488525390625,0.0017938613891601562,-0.01972711831331253,0.010133258998394012
1717513000109495000,6.5294951171875,-0.0029458999633789062,-0.009929172694683075,0.005273826420307159
1717513000119501600,6.53950146484375,0.0018110275268554688,-0.01912960410118103,0.014517124742269516
1717513000129508000,6.549508056640625,0.0017795562744140625,-0.014051511883735657,0.014188434928655624
1717513000139514600,6.5595146484375,-0.0029592514038085938,-0.018476292490959167,0.009154751896858215
1717513000149521200,6.569521240234375,0.0065059661865234375,-0.022827312350273132,0.009017445147037506
1717513000159527700,6.579527587890625,-0.0030202865600585938,-0.012980468571186066,0.013590492308139801
1717513000169534200,6.5895341796875,-0.0029687881469726562,-0.008110009133815765,0.013378258794546127
1717513000179540700,6.599540771484375,0.0017881393432617188,-0.01734308898448944,0.017878934741020203
1717513000189547300,6.60954736328125,-0.0029516220092773438,-0.0217144712805748,0.012885861098766327
1717513000199553800,6.6195537109375,0.0018053054809570312,-0.011887505650520325,0.00797567144036293
1717513000209560000,6.62956005859375,0.001773834228515625,-0.011641807854175568,0.003146994858980179
1717513000219566600,6.639566650390625,-0.0029649734497070312,-0.02081722766160965,0.012525435537099838
1717513000229573000,6.649572998046875,-0.0029163360595703125,-0.01571475714445114,0.007620286196470261
1717513000239579600,6.65957958984375,-0.00286865234375,-0.005989573895931244,0.0027954280376434326
1717513000249586200,6.669586181640625,0.0018873214721679688,-0.010551750659942627,0.0074702054262161255
1717513000259592700,6.6795927734375,-0.0028524398803710938,-0.01974744349718094,0.012065630406141281
1717513000269599200,6.68959912109375,0.006611824035644531,-0.014664620161056519,0.00727028027176857
1717513000279605800,6.699605712890625,-0.0029153823852539062,-0.009667091071605682,0.007159896194934845
1717513000289612300,6.7096123046875,0.0018415451049804688,-0.014170676469802856,0.007051095366477966
1717513000299618800,6.719618896484375,-0.0028972625732421875,-0.013891279697418213,0.011652462184429169
1717513000309625300,6.729625244140625,-0.002849578857421875,-0.013616800308227539,0.006657566875219345
1717513000319632000,6.7396318359375,0.0019073486328125,-0.018160052597522736,0.011265058070421219
1717513000329638400,6.749638427734375,0.00658416748046875,-0.003690764307975769,0.006378374993801117
1717513000339645000,6.75964501953125,0.006472587585449219,-0.017611831426620483,0.0062815845012664795
1717513000349651200,6.769651123046875,-0.0030527114868164062,-0.007862158119678497,0.010998159646987915
1717513000359657700,6.77965771484375,0.0017080307006835938,-0.012505069375038147,0.0014069192111492157
1717513000369664300,6.789664306640625,0.0016794204711914062,-0.012259751558303833,-0.0032127052545547485
1717513000379670800,6.7996708984375,0.001651763916015625,-0.007414266467094421,0.006163738667964935
1717513000389677300,6.80967724609375,-0.0030841827392578125,-0.007255911827087402,0.0013612434267997742
1717513000399683800,6.819683837890625,-0.003032684326171875,-0.007101245224475861,0.010764379054307938
1717513000409690400,6.8296904296875,0.0017261505126953125,-0.006950199604034424,0.005884770303964615
1717513000419697000,6.83969677734375,0.006404876708984375,-0.011511765420436859,0.005690418183803558
1717513000429703400,6.849703369140625,0.0015897750854492188,-0.015997879207134247,0.010312046855688095
1717513000439710000,6.8597099609375,0.0015630722045898438,-0.0062834396958351135,0.010148048400878906
1717513000449716500,6.869716552734375,0.001537322998046875,-0.0014415532350540161,0.005277626216411591
1717513000459723000,6.879722900390625,0.0015115737915039062,-0.01080717146396637,0.0004880949854850769
1717513000469729500,6.8897294921875,-0.003223419189453125,-0.0057886093854904175,0.009903892874717712
1717513000479736000,6.899736083984375,0.0015392303466796875,-0.015083767473697662,0.009848557412624359
1717513000489742600,6.90974267578125,0.0015134811401367188,-0.014807812869548798,0.004981953650712967
1717513000499748900,6.919748779296875,0.0014886856079101562,-0.0051202550530433655,0.009613342583179474
1717513000509755400,6.92975537109375,-0.0032453536987304688,-0.009720921516418457,-0.004770465195178986
1717513000519762000,6.939761962890625,0.0015163421630859375,-0.0047253891825675964,0.004731409251689911
1717513000529768400,6.9497685546875,0.0014905929565429688,-0.014042720198631287,0.009367130696773529
1717513000539775000,6.95977490234375,0.00617218017578125,-0.008976645767688751,0.009113423526287079
1717513000549781500,6.969781494140625,0.0013608932495117188,-0.008808299899101257,0.00425729900598526
1717513000559788000,6.9797880859375,-0.0033712387084960938,0.0008771941065788269,0.013608783483505249
1717513000569794600,6.989794677734375,-0.003314971923828125,0.0008793473243713379,0.008677341043949127
1717513000579801000,6.999801025390625,-0.0032596588134765625,-0.008536316454410553,0.003829006105661392
1717513000589807600,7.0098076171875,-0.0032062530517578125,-0.003567434847354889,-0.0008364804089069366
1717513000599814100,7.019814208984375,0.0015554428100585938,-0.003493867814540863,0.0038906224071979523
1717513000609820700,7.029820556640625,0.006237983703613281,-0.003422580659389496,0.003830205649137497
1717513000619827200,7.0398271484375,-0.0032835006713867188,0.0013545975089073181,0.0037695802748203278
1717513000629833700,7.049833740234375,-0.0032291412353515625,-0.0033656954765319824,0.01323143020272255
1717513000639840000,7.059840087890625,-0.007884025573730469,-0.0033002719283103943,0.00830531120300293
1717513000649846500,7.069846435546875,0.0016632080078125,-0.0031337887048721313,0.008169785141944885
1717513000659853000,7.07985302734375,-0.0030727386474609375,-0.003074534237384796,-0.0013807900249958038
1717513000669859600,7.089859619140625,0.00168609619140625,-0.007622338831424713,0.0033545680344104767
1717513000679866000,7.0998662109375,0.011074066162109375,-0.007387399673461914,0.008009795099496841
1717513000689872600,7.10987255859375,0.00147247314453125,-0.007260479032993317,0.0031711645424365997
1717513000699879200,7.119879150390625,0.0014476776123046875,-0.007136963307857513,0.003224901854991913
1717513000709886000,7.129885986328125,0.001422882080078125,0.002503231167793274,0.00788179412484169
1717513000719892500,7.139892578125,0.006107330322265625,-0.0022476688027381897,0.003043659031391144
1717513000729899000,7.14989892578125,-0.0034122467041015625,-0.006817452609539032,0.0029945336282253265
1717513000739905500,7.159905517578125,-0.0033550262451171875,-0.0019985362887382507,0.007654588669538498
1717513000749912000,7.169912109375,0.0014085769653320312,-0.0018661990761756897,0.0028206072747707367
1717513000759918600,7.179918701171875,0.001384735107421875,-0.0065497905015945435,-0.0019341185688972473
1717513000769925000,7.189925048828125,0.006070137023925781,-0.0017395392060279846,0.0028073303401470184
1717513000779932000,7.199931884765625,-0.008156776428222656,-0.01113622635602951,0.0027619600296020508
1717513000789938400,7.2099384765625,0.006104469299316406,-0.010960936546325684,-0.001992601901292801
1717513000799945000,7.219945068359375,0.001293182373046875,-0.0012694448232650757,-0.001959633082151413
1717513000809951500,7.229951416015625,0.005980491638183594,-0.0012608841061592102,0.002782117575407028
1717513000819958000,7.2399580078125,0.0011720657348632812,-0.0012537762522697449,0.007444493472576141
1717513000829964500,7.249964599609375,0.00115203857421875,-0.001145191490650177,0.012027736753225327
1717513000839971000,7.25997119140625,0.001132965087890625,-0.005851119756698608,0.0024094879627227783
1717513000849977900,7.269977783203125,-0.0035943984985351562,-0.005771636962890625,0.007075905799865723
1717513000859984400,7.279984375,0.0011739730834960938,-0.0009860321879386902,0.006955590099096298
1717513000869991000,7.289990966796875,0.0011529922485351562,-0.010303385555744171,0.0021293796598911285
1717513000879997400,7.29999755859375,0.001132965087890625,-0.005341164767742157,0.0020908042788505554
1717513000890004000,7.31000390625,0.0011138916015625,-0.0052746012806892395,0.002052541822195053
1717513000900010500,7.320010498046875,0.0010967254638671875,-0.000501580536365509,0.0021179094910621643
1717513000910017000,7.33001708984375,-0.0036306381225585938,-0.000414431095123291,0.0020785965025424957
1717513000920023600,7.3400234375,0.005847930908203125,-0.0004330053925514221,-0.00727425143122673
1717513000930030300,7.3500302734375,0.001041412353515625,-0.00045222043991088867,0.002259574830532074
1717513000940036900,7.360036865234375,-0.0036840438842773438,-0.00047200173139572144,-0.00238829106092453
1717513000950043400,7.37004345703125,-0.0036230087280273438,-0.005200475454330444,0.0023559443652629852
1717513000960050000,7.3800498046875,0.005855560302734375,-0.0051427483558654785,-0.0022941678762435913
1717513000970056400,7.390056396484375,-0.0036592483520507812,-0.0002743825316429138,0.0025511234998703003
1717513000980063000,7.40006298828125,-0.0035982131958007812,-0.004905447363853455,0.002605646848678589
1717513000990069500,7.410069580078125,-0.008246421813964844,-0.004854656755924225,0.007264159619808197
1717513001000076300,7.420076171875,0.0013093948364257812,-0.004805289208889008,0.0025306828320026398
1717513001010082800,7.430082763671875,0.005995750427246094,-0.004756838083267212,0.002481963485479355
1717513001020089300,7.44008935546875,0.0011873245239257812,-0.004606366157531738,-0.0021717771887779236
1717513001030096000,7.450095947265625,0.00116729736328125,-0.009270712733268738,-0.0021432340145111084
1717513001040102400,7.460102294921875,0.001148223876953125,-0.004440538585186005,0.007198113948106766
1717513001050109000,7.47010888671875,0.0058383941650390625,0.0003083646297454834,-0.002245720475912094
1717513001060115500,7.480115478515625,0.0010328292846679688,0.00037292391061782837,-0.0021145977079868317
1717513001070122000,7.4901220703125,-0.003692626953125,-0.009084783494472504,0.002617865800857544
1717513001080128500,7.50012841796875,0.0010776519775390625,-0.00425933301448822,0.0024588145315647125
1717513001090135000,7.510135009765625,0.0010595321655273438,0.0005892068147659302,0.0025092624127864838
1717513001100141600,7.5201416015625,0.005751609802246094,-0.004163749516010284,0.007266663014888763
1717513001110148000,7.530148193359375,0.0056552886962890625,-0.00412905216217041,-0.002285156399011612
1717513001120154600,7.540154541015625,-0.003856658935546875,0.005424991250038147,0.0023428015410900116
1717513001130161200,7.5501611328125,0.005623817443847656,0.0006943121552467346,0.0022884905338287354
1717513001140167700,7.560167724609375,0.0055294036865234375,-0.003957636654376984,0.002234194427728653
1717513001150174200,7.57017431640625,0.0054378509521484375,-0.008635438978672028,0.002283211797475815
1717513001160180700,7.5801806640625,0.010054588317871094,0.0009932741522789001,0.0022261813282966614
1717513001170187300,7.590187255859375,0.005177497863769531,0.001044638454914093,0.0021702609956264496
1717513001180193800,7.60019384765625,0.0003814697265625,-0.003613986074924469,0.0021133720874786377
1717513001190200000,7.610199951171875,-0.004334449768066406,0.0012225061655044556,0.002057630568742752
1717513001200206600,7.62020654296875,0.009862899780273438,0.0012691915035247803,0.011314887553453445
1717513001210213000,7.630213134765625,0.004988670349121094,-0.0033937394618988037,0.006291326135396957
1717513001220219600,7.6402197265625,0.0001964569091796875,0.006043665111064911,-0.003253418952226639
1717513001230226200,7.65022607421875,0.0001926422119140625,0.0013005435466766357,0.006193708628416061
1717513001240232700,7.660232666015625,0.004897117614746094,-0.008072488009929657,0.005962435156106949
1717513001250239200,7.6702392578125,0.00481414794921875,0.0015450790524482727,0.0010271184146404266
1717513001260245800,7.680245849609375,0.004733085632324219,0.0015846863389015198,0.005694352090358734
1717513001270252300,7.690252197265625,-0.00005435943603515625,-0.003188803791999817,0.000866524875164032
1717513001280258800,7.7002587890625,0.0046539306640625,0.0016367807984352112,0.00553537905216217
1717513001290265300,7.710265380859375,-0.000133514404296875,0.006381303071975708,0.00070938840508461
1717513001300271900,7.72027197265625,-0.00013256072998046875,0.001629263162612915,0.000673733651638031
1717513001310278400,7.7302783203125,-0.0001316070556640625,0.00637286901473999,0.005347639322280884
1717513001320285000,7.740284912109375,0.004578590393066406,-0.00308961421251297,0.000525888055562973
1717513001330291200,7.750291259765625,-0.00020694732666015625,0.0017305165529251099,0.000493660569190979
1717513001340297700,7.760297607421875,-0.0002040863037109375,0.006469354033470154,0.00046261027455329895
1717513001350304300,7.77030419921875,-0.00020122528076171875,-0.0029972195625305176,0.00043382495641708374
1717513001360310800,7.780310791015625,-0.0049076080322265625,-0.0027870088815689087,0.0005085915327072144
1717513001370317300,7.7903173828125,-0.00011730194091796875,-0.0027880966663360596,0.0050849467515945435
1717513001380323800,7.80032373046875,-0.00011539459228515625,0.0019185766577720642,0.0048783645033836365
1717513001390330400,7.810330322265625,-0.00011444091796875,-0.0027687624096870422,0.004778463393449783
1717513001400337000,7.8203369140625,-0.00482177734375,-0.007379300892353058,0.004681244492530823
1717513001410343400,7.830343505859375,-0.0000324249267578125,0.002211824059486389,-0.000017561018466949463
1717513001420350000,7.840349853515625,-0.0000324249267578125,0.0022245198488235474,-0.00003166124224662781
1717513001430356500,7.8503564453125,0.004675865173339844,0.002235211431980133,-0.00004542618989944458
1717513001440363000,7.860363037109375,0.009305953979492188,-0.0024624764919281006,-0.00005793571472167969
1717513001450369500,7.87036962890625,-0.0002651214599609375,0.002228774130344391,0.004639629274606705
1717513001460376000,7.8803759765625,-0.009676933288574219,0.002132222056388855,-0.004864722490310669
1717513001470382600,7.890382568359375,-0.00009822845458984375,0.0021392032504081726,-0.004792351275682449
1717513001480388900,7.900388916015625,-0.00009632110595703125,0.0021447092294692993,-0.004720095545053482
1717513001490395400,7.9103955078125,0.0046138763427734375,0.0021487846970558167,0.004769209772348404
1717513001500402000,7.92040185546875,0.004536628723144531,0.002151481807231903,0.0000788755714893341
1717513001510408400,7.930408447265625,-0.000247955322265625,-0.002556145191192627,-0.004636678844690323
1717513001520415000,7.9404150390625,-0.000244140625,0.006939224898815155,0.00014440342783927917
1717513001530421500,7.95042138671875,-0.000240325927734375,-0.0025592967867851257,0.004949897527694702
1717513001540428000,7.960427978515625,-0.00023555755615234375,0.0021221786737442017,0.00015651807188987732
1717513001550434600,7.9704345703125,-0.00023174285888671875,-0.0025894269347190857,0.0048608481884002686
1717513001560441000,7.980441162109375,-0.00493621826171875,0.002193555235862732,0.009487316012382507
1717513001570447600,7.990447509765625,-0.00014400482177734375,-0.0073333606123924255,0.009431857615709305
